instructions.started,instructions.stopped,key_resp.keys,key_resp.rt,key_resp.duration,participant,session,date,expName,psychopyVersion,OS,frameRate,updateLocation.started,updateLocation.stopped,trial.started,trial.stopped,trials.response,resp.keys,resp.corr,resp.rt,resp.duration,trials.thisRepN,trials.thisTrialN,trials.thisN,trials.thisIndex,trials.ran,trials.intensity,trials.label,trials.nReps,trials.method,trials.autoLog,trials.seed,trials.varName,trials.startVal,trials.minVal,trials.maxVal,trials.startValSd,trials.pThreshold,trials.nTrials,trials.stopInterval,trials.beta,trials.delta,trials.gamma,trials.grain,trialnew.started,trialnew.stopped,trials2.response,resp_2.keys,resp_2.corr,resp_2.rt,resp_2.duration,trials2.thisRepN,trials2.thisTrialN,trials2.thisN,trials2.thisIndex,trials2.ran,trials2.intensity,trials2.label,trials2.nReps,trials2.method,trials2.autoLog,trials2.seed,trials2.varName,trials2.startVal,trials2.minVal,trials2.maxVal,trials2.startValSd,trials2.pThreshold,trials2.nTrials,trials2.stopInterval,trials2.beta,trials2.delta,trials2.gamma,trials2.grain
0.001,1.441,right,1.421,,ear_test_contrast,001,2023-09-21_16h47.18.494,contrast,2023.2.2,MacIntel,62.5,,,,,,,,,,,,,,,,,,,,,,,,,,,,,,,,,,,,,,,,,,,,,,,,,,,,,,,,,,,,,,
,,,,,ear_test_contrast,001,2023-09-21_16h47.18.494,contrast,2023.2.2,MacIntel,62.5,1.475,1.475,1.475,2.441,1,left,1,0.956,,0,0,0,0,1,1.121857104,staircase1,1,,TRUE,,intensity,1,0,1,0.5,0.82,50,4.94066E-324,0.5,0,0.5,0.01,,,,,,,,,,,,,,,,,,,,,,,,,,,,,,
,,,,,ear_test_contrast,001,2023-09-21_16h47.18.494,contrast,2023.2.2,MacIntel,62.5,2.444,2.444,2.444,3.307,1,left,1,0.852,,0,1,1,1,1,1.065072338,staircase1,1,,TRUE,,intensity,1,0,1,0.5,0.82,50,4.94066E-324,0.5,0,0.5,0.01,,,,,,,,,,,,,,,,,,,,,,,,,,,,,,
,,,,,ear_test_contrast,001,2023-09-21_16h47.18.494,contrast,2023.2.2,MacIntel,62.5,3.312,3.312,3.312,4.161,1,left,1,0.837,,0,2,2,2,1,1.009612489,staircase1,1,,TRUE,,intensity,1,0,1,0.5,0.82,50,4.94066E-324,0.5,0,0.5,0.01,,,,,,,,,,,,,,,,,,,,,,,,,,,,,,
,,,,,ear_test_contrast,001,2023-09-21_16h47.18.494,contrast,2023.2.2,MacIntel,62.5,4.164,4.164,4.164,5.026,1,left,1,0.849,,0,3,3,3,1,0.955343164,staircase1,1,,TRUE,,intensity,1,0,1,0.5,0.82,50,4.94066E-324,0.5,0,0.5,0.01,,,,,,,,,,,,,,,,,,,,,,,,,,,,,,
,,,,,ear_test_contrast,001,2023-09-21_16h47.18.494,contrast,2023.2.2,MacIntel,62.5,5.028,5.028,5.029,5.875,1,left,1,0.833,,0,4,4,4,1,0.902490684,staircase1,1,,TRUE,,intensity,1,0,1,0.5,0.82,50,4.94066E-324,0.5,0,0.5,0.01,,,,,,,,,,,,,,,,,,,,,,,,,,,,,,
,,,,,ear_test_contrast,001,2023-09-21_16h47.18.494,contrast,2023.2.2,MacIntel,62.5,5.877,5.877,5.877,6.693,1,left,1,0.805,,0,5,5,5,1,0.850874163,staircase1,1,,TRUE,,intensity,1,0,1,0.5,0.82,50,4.94066E-324,0.5,0,0.5,0.01,,,,,,,,,,,,,,,,,,,,,,,,,,,,,,
,,,,,ear_test_contrast,001,2023-09-21_16h47.18.494,contrast,2023.2.2,MacIntel,62.5,6.695,6.695,6.695,7.559,1,right,1,0.851,,0,6,6,6,1,0.800686352,staircase1,1,,TRUE,,intensity,1,0,1,0.5,0.82,50,4.94066E-324,0.5,0,0.5,0.01,,,,,,,,,,,,,,,,,,,,,,,,,,,,,,
,,,,,ear_test_contrast,001,2023-09-21_16h47.18.494,contrast,2023.2.2,MacIntel,62.5,7.561,7.561,7.561,8.392,1,right,1,0.817,,0,7,7,7,1,0.751908137,staircase1,1,,TRUE,,intensity,1,0,1,0.5,0.82,50,4.94066E-324,0.5,0,0.5,0.01,,,,,,,,,,,,,,,,,,,,,,,,,,,,,,
,,,,,ear_test_contrast,001,2023-09-21_16h47.18.494,contrast,2023.2.2,MacIntel,62.5,8.395,8.395,8.395,9.207,1,right,1,0.801,,0,8,8,8,1,0.704500821,staircase1,1,,TRUE,,intensity,1,0,1,0.5,0.82,50,4.94066E-324,0.5,0,0.5,0.01,,,,,,,,,,,,,,,,,,,,,,,,,,,,,,
,,,,,ear_test_contrast,001,2023-09-21_16h47.18.494,contrast,2023.2.2,MacIntel,62.5,9.208,9.209,9.209,9.99,1,right,1,0.766,,0,9,9,9,1,0.658409933,staircase1,1,,TRUE,,intensity,1,0,1,0.5,0.82,50,4.94066E-324,0.5,0,0.5,0.01,,,,,,,,,,,,,,,,,,,,,,,,,,,,,,
,,,,,ear_test_contrast,001,2023-09-21_16h47.18.494,contrast,2023.2.2,MacIntel,62.5,9.994,9.994,9.994,10.824,1,right,1,0.818,,0,10,10,10,1,0.613762047,staircase1,1,,TRUE,,intensity,1,0,1,0.5,0.82,50,4.94066E-324,0.5,0,0.5,0.01,,,,,,,,,,,,,,,,,,,,,,,,,,,,,,
,,,,,ear_test_contrast,001,2023-09-21_16h47.18.494,contrast,2023.2.2,MacIntel,62.5,10.827,10.827,10.827,11.676,1,right,1,0.835,,0,11,11,11,1,0.570315428,staircase1,1,,TRUE,,intensity,1,0,1,0.5,0.82,50,4.94066E-324,0.5,0,0.5,0.01,,,,,,,,,,,,,,,,,,,,,,,,,,,,,,
,,,,,ear_test_contrast,001,2023-09-21_16h47.18.494,contrast,2023.2.2,MacIntel,62.5,11.677,11.677,11.678,12.525,1,right,1,0.835,,0,12,12,12,1,0.52818133,staircase1,1,,TRUE,,intensity,1,0,1,0.5,0.82,50,4.94066E-324,0.5,0,0.5,0.01,,,,,,,,,,,,,,,,,,,,,,,,,,,,,,
,,,,,ear_test_contrast,001,2023-09-21_16h47.18.494,contrast,2023.2.2,MacIntel,62.5,12.527,12.528,12.528,13.34,1,right,1,0.8,,0,13,13,13,1,0.487277742,staircase1,1,,TRUE,,intensity,1,0,1,0.5,0.82,50,4.94066E-324,0.5,0,0.5,0.01,,,,,,,,,,,,,,,,,,,,,,,,,,,,,,
,,,,,ear_test_contrast,001,2023-09-21_16h47.18.494,contrast,2023.2.2,MacIntel,62.5,13.342,13.343,13.343,14.207,1,left,1,0.853,,0,14,14,14,1,0.447534648,staircase1,1,,TRUE,,intensity,1,0,1,0.5,0.82,50,4.94066E-324,0.5,0,0.5,0.01,,,,,,,,,,,,,,,,,,,,,,,,,,,,,,
,,,,,ear_test_contrast,001,2023-09-21_16h47.18.494,contrast,2023.2.2,MacIntel,62.5,14.209,14.209,14.209,15.091,1,left,1,0.872,,0,15,15,15,1,0.408880991,staircase1,1,,TRUE,,intensity,1,0,1,0.5,0.82,50,4.94066E-324,0.5,0,0.5,0.01,,,,,,,,,,,,,,,,,,,,,,,,,,,,,,
,,,,,ear_test_contrast,001,2023-09-21_16h47.18.494,contrast,2023.2.2,MacIntel,62.5,15.093,15.093,15.093,15.94,1,right,1,0.835,,0,16,16,16,1,0.37125397,staircase1,1,,TRUE,,intensity,1,0,1,0.5,0.82,50,4.94066E-324,0.5,0,0.5,0.01,,,,,,,,,,,,,,,,,,,,,,,,,,,,,,
,,,,,ear_test_contrast,001,2023-09-21_16h47.18.494,contrast,2023.2.2,MacIntel,62.5,15.943,15.943,15.943,16.775,1,left,1,0.817,,0,17,17,17,1,0.334586869,staircase1,1,,TRUE,,intensity,1,0,1,0.5,0.82,50,4.94066E-324,0.5,0,0.5,0.01,,,,,,,,,,,,,,,,,,,,,,,,,,,,,,
,,,,,ear_test_contrast,001,2023-09-21_16h47.18.494,contrast,2023.2.2,MacIntel,62.5,16.778,16.778,16.778,17.591,1,right,1,0.801,,0,18,18,18,1,0.298798251,staircase1,1,,TRUE,,intensity,1,0,1,0.5,0.82,50,4.94066E-324,0.5,0,0.5,0.01,,,,,,,,,,,,,,,,,,,,,,,,,,,,,,
,,,,,ear_test_contrast,001,2023-09-21_16h47.18.494,contrast,2023.2.2,MacIntel,62.5,17.593,17.593,17.593,18.44,1,right,1,0.834,,0,19,19,19,1,0.263974317,staircase1,1,,TRUE,,intensity,1,0,1,0.5,0.82,50,4.94066E-324,0.5,0,0.5,0.01,,,,,,,,,,,,,,,,,,,,,,,,,,,,,,
,,,,,ear_test_contrast,001,2023-09-21_16h47.18.494,contrast,2023.2.2,MacIntel,62.5,18.443,18.443,18.443,19.258,1,right,1,0.801,,0,20,20,20,1,0.229908482,staircase1,1,,TRUE,,intensity,1,0,1,0.5,0.82,50,4.94066E-324,0.5,0,0.5,0.01,,,,,,,,,,,,,,,,,,,,,,,,,,,,,,
,,,,,ear_test_contrast,001,2023-09-21_16h47.18.494,contrast,2023.2.2,MacIntel,62.5,19.26,19.26,19.26,20.107,1,left,1,0.835,,0,21,21,21,1,0.196696568,staircase1,1,,TRUE,,intensity,1,0,1,0.5,0.82,50,4.94066E-324,0.5,0,0.5,0.01,,,,,,,,,,,,,,,,,,,,,,,,,,,,,,
,,,,,ear_test_contrast,001,2023-09-21_16h47.18.494,contrast,2023.2.2,MacIntel,62.5,20.109,20.109,20.109,20.974,1,left,1,0.852,,0,22,22,22,1,0.164262061,staircase1,1,,TRUE,,intensity,1,0,1,0.5,0.82,50,4.94066E-324,0.5,0,0.5,0.01,,,,,,,,,,,,,,,,,,,,,,,,,,,,,,
,,,,,ear_test_contrast,001,2023-09-21_16h47.18.494,contrast,2023.2.2,MacIntel,62.5,20.975,20.975,20.975,21.826,1,left,1,0.834,,0,23,23,23,1,0.13244514,staircase1,1,,TRUE,,intensity,1,0,1,0.5,0.82,50,4.94066E-324,0.5,0,0.5,0.01,,,,,,,,,,,,,,,,,,,,,,,,,,,,,,
,,,,,ear_test_contrast,001,2023-09-21_16h47.18.494,contrast,2023.2.2,MacIntel,62.5,21.827,21.828,21.828,22.674,1,right,1,0.835,,0,24,24,24,1,0.101311825,staircase1,1,,TRUE,,intensity,1,0,1,0.5,0.82,50,4.94066E-324,0.5,0,0.5,0.01,,,,,,,,,,,,,,,,,,,,,,,,,,,,,,
,,,,,ear_test_contrast,001,2023-09-21_16h47.18.494,contrast,2023.2.2,MacIntel,62.5,22.676,22.676,22.676,23.54,1,left,1,0.85,,0,25,25,25,1,0.070821299,staircase1,1,,TRUE,,intensity,1,0,1,0.5,0.82,50,4.94066E-324,0.5,0,0.5,0.01,,,,,,,,,,,,,,,,,,,,,,,,,,,,,,
,,,,,ear_test_contrast,001,2023-09-21_16h47.18.494,contrast,2023.2.2,MacIntel,62.5,23.542,23.542,23.543,24.424,1,left,1,0.87,,0,26,26,26,1,0.040934001,staircase1,1,,TRUE,,intensity,1,0,1,0.5,0.82,50,4.94066E-324,0.5,0,0.5,0.01,,,,,,,,,,,,,,,,,,,,,,,,,,,,,,
,,,,,ear_test_contrast,001,2023-09-21_16h47.18.494,contrast,2023.2.2,MacIntel,62.5,24.426,24.426,24.426,25.691,0,right,0,1.254,,0,27,27,27,1,0.011611757,staircase1,1,,TRUE,,intensity,1,0,1,0.5,0.82,50,4.94066E-324,0.5,0,0.5,0.01,,,,,,,,,,,,,,,,,,,,,,,,,,,,,,
,,,,,ear_test_contrast,001,2023-09-21_16h47.18.494,contrast,2023.2.2,MacIntel,62.5,25.693,25.693,25.693,26.574,1,left,1,0.867,,0,28,28,28,1,0.144552259,staircase1,1,,TRUE,,intensity,1,0,1,0.5,0.82,50,4.94066E-324,0.5,0,0.5,0.01,,,,,,,,,,,,,,,,,,,,,,,,,,,,,,
,,,,,ear_test_contrast,001,2023-09-21_16h47.18.494,contrast,2023.2.2,MacIntel,62.5,26.575,26.575,26.575,27.457,1,left,1,0.87,,0,29,29,29,1,0.118167908,staircase1,1,,TRUE,,intensity,1,0,1,0.5,0.82,50,4.94066E-324,0.5,0,0.5,0.01,,,,,,,,,,,,,,,,,,,,,,,,,,,,,,
,,,,,ear_test_contrast,001,2023-09-21_16h47.18.494,contrast,2023.2.2,MacIntel,62.5,27.457,27.457,27.457,28.377,1,left,1,0.9,,0,30,30,30,1,0.092450866,staircase1,1,,TRUE,,intensity,1,0,1,0.5,0.82,50,4.94066E-324,0.5,0,0.5,0.01,,,,,,,,,,,,,,,,,,,,,,,,,,,,,,
,,,,,ear_test_contrast,001,2023-09-21_16h47.18.494,contrast,2023.2.2,MacIntel,62.5,28.378,28.378,28.378,29.223,1,right,1,0.836,,0,31,31,31,1,0.067271576,staircase1,1,,TRUE,,intensity,1,0,1,0.5,0.82,50,4.94066E-324,0.5,0,0.5,0.01,,,,,,,,,,,,,,,,,,,,,,,,,,,,,,
,,,,,ear_test_contrast,001,2023-09-21_16h47.18.494,contrast,2023.2.2,MacIntel,62.5,29.225,29.225,29.226,30.125,1,left,1,0.884,,0,32,32,32,1,0.042681349,staircase1,1,,TRUE,,intensity,1,0,1,0.5,0.82,50,4.94066E-324,0.5,0,0.5,0.01,,,,,,,,,,,,,,,,,,,,,,,,,,,,,,
,,,,,ear_test_contrast,001,2023-09-21_16h47.18.494,contrast,2023.2.2,MacIntel,62.5,30.127,30.127,30.127,30.992,1,right,1,0.85,,0,33,33,33,1,0.01856334,staircase1,1,,TRUE,,intensity,1,0,1,0.5,0.82,50,4.94066E-324,0.5,0,0.5,0.01,,,,,,,,,,,,,,,,,,,,,,,,,,,,,,
,,,,,ear_test_contrast,001,2023-09-21_16h47.18.494,contrast,2023.2.2,MacIntel,62.5,30.994,30.994,30.994,31.991,1,left,1,0.985,,0,34,34,34,1,-0.005017346,staircase1,1,,TRUE,,intensity,1,0,1,0.5,0.82,50,4.94066E-324,0.5,0,0.5,0.01,,,,,,,,,,,,,,,,,,,,,,,,,,,,,,
,,,,,ear_test_contrast,001,2023-09-21_16h47.18.494,contrast,2023.2.2,MacIntel,62.5,31.993,31.993,31.993,33.157,1,right,1,1.15,,0,35,35,35,1,-0.028188003,staircase1,1,,TRUE,,intensity,1,0,1,0.5,0.82,50,4.94066E-324,0.5,0,0.5,0.01,,,,,,,,,,,,,,,,,,,,,,,,,,,,,,
,,,,,ear_test_contrast,001,2023-09-21_16h47.18.494,contrast,2023.2.2,MacIntel,62.5,33.158,33.158,33.158,34.623,1,right,1,1.449,,0,36,36,36,1,-0.05088551,staircase1,1,,TRUE,,intensity,1,0,1,0.5,0.82,50,4.94066E-324,0.5,0,0.5,0.01,,,,,,,,,,,,,,,,,,,,,,,,,,,,,,
,,,,,ear_test_contrast,001,2023-09-21_16h47.18.494,contrast,2023.2.2,MacIntel,62.5,34.625,34.625,34.625,35.74,1,left,1,1.103,,0,37,37,37,1,-0.07312361,staircase1,1,,TRUE,,intensity,1,0,1,0.5,0.82,50,4.94066E-324,0.5,0,0.5,0.01,,,,,,,,,,,,,,,,,,,,,,,,,,,,,,
,,,,,ear_test_contrast,001,2023-09-21_16h47.18.494,contrast,2023.2.2,MacIntel,62.5,35.743,35.743,35.743,36.893,1,right,1,1.133,,0,38,38,38,1,-0.09493972,staircase1,1,,TRUE,,intensity,1,0,1,0.5,0.82,50,4.94066E-324,0.5,0,0.5,0.01,,,,,,,,,,,,,,,,,,,,,,,,,,,,,,
,,,,,ear_test_contrast,001,2023-09-21_16h47.18.494,contrast,2023.2.2,MacIntel,62.5,36.895,36.895,36.895,37.906,1,left,1,1.001,,0,39,39,39,1,-0.11635235,staircase1,1,,TRUE,,intensity,1,0,1,0.5,0.82,50,4.94066E-324,0.5,0,0.5,0.01,,,,,,,,,,,,,,,,,,,,,,,,,,,,,,
,,,,,ear_test_contrast,001,2023-09-21_16h47.18.494,contrast,2023.2.2,MacIntel,62.5,37.908,37.908,37.908,38.875,0,left,0,0.951,,0,40,40,40,1,-0.137451056,staircase1,1,,TRUE,,intensity,1,0,1,0.5,0.82,50,4.94066E-324,0.5,0,0.5,0.01,,,,,,,,,,,,,,,,,,,,,,,,,,,,,,
,,,,,ear_test_contrast,001,2023-09-21_16h47.18.494,contrast,2023.2.2,MacIntel,62.5,38.877,38.877,38.877,39.74,1,left,1,0.853,,0,41,41,41,1,-0.041424171,staircase1,1,,TRUE,,intensity,1,0,1,0.5,0.82,50,4.94066E-324,0.5,0,0.5,0.01,,,,,,,,,,,,,,,,,,,,,,,,,,,,,,
,,,,,ear_test_contrast,001,2023-09-21_16h47.18.494,contrast,2023.2.2,MacIntel,62.5,39.741,39.741,39.742,40.608,0,right,0,0.857,,0,42,42,42,1,-0.061124278,staircase1,1,,TRUE,,intensity,1,0,1,0.5,0.82,50,4.94066E-324,0.5,0,0.5,0.01,,,,,,,,,,,,,,,,,,,,,,,,,,,,,,
,,,,,ear_test_contrast,001,2023-09-21_16h47.18.494,contrast,2023.2.2,MacIntel,62.5,40.611,40.611,40.611,41.407,0,left,0,0.784,,0,43,43,43,1,0.02910612,staircase1,1,,TRUE,,intensity,1,0,1,0.5,0.82,50,4.94066E-324,0.5,0,0.5,0.01,,,,,,,,,,,,,,,,,,,,,,,,,,,,,,
,,,,,ear_test_contrast,001,2023-09-21_16h47.18.494,contrast,2023.2.2,MacIntel,62.5,41.411,41.411,41.411,42.356,1,left,1,0.938,,0,44,44,44,1,0.1166838,staircase1,1,,TRUE,,intensity,1,0,1,0.5,0.82,50,4.94066E-324,0.5,0,0.5,0.01,,,,,,,,,,,,,,,,,,,,,,,,,,,,,,
,,,,,ear_test_contrast,001,2023-09-21_16h47.18.494,contrast,2023.2.2,MacIntel,62.5,42.36,42.36,42.36,43.208,1,right,1,0.834,,0,45,45,45,1,0.098332537,staircase1,1,,TRUE,,intensity,1,0,1,0.5,0.82,50,4.94066E-324,0.5,0,0.5,0.01,,,,,,,,,,,,,,,,,,,,,,,,,,,,,,
,,,,,ear_test_contrast,001,2023-09-21_16h47.18.494,contrast,2023.2.2,MacIntel,62.5,43.21,43.21,43.211,44.058,1,left,1,0.836,,0,46,46,46,1,0.080383989,staircase1,1,,TRUE,,intensity,1,0,1,0.5,0.82,50,4.94066E-324,0.5,0,0.5,0.01,,,,,,,,,,,,,,,,,,,,,,,,,,,,,,
,,,,,ear_test_contrast,001,2023-09-21_16h47.18.494,contrast,2023.2.2,MacIntel,62.5,44.06,44.06,44.06,44.907,1,left,1,0.835,,0,47,47,47,1,0.062834549,staircase1,1,,TRUE,,intensity,1,0,1,0.5,0.82,50,4.94066E-324,0.5,0,0.5,0.01,,,,,,,,,,,,,,,,,,,,,,,,,,,,,,
,,,,,ear_test_contrast,001,2023-09-21_16h47.18.494,contrast,2023.2.2,MacIntel,62.5,44.909,44.909,44.909,45.756,1,right,1,0.834,,0,48,48,48,1,0.045638828,staircase1,1,,TRUE,,intensity,1,0,1,0.5,0.82,50,4.94066E-324,0.5,0,0.5,0.01,,,,,,,,,,,,,,,,,,,,,,,,,,,,,,
,,,,,ear_test_contrast,001,2023-09-21_16h47.18.494,contrast,2023.2.2,MacIntel,62.5,45.757,45.757,45.757,46.639,1,left,1,0.866,,0,49,49,49,1,0.028827823,staircase1,1,,TRUE,,intensity,1,0,1,0.5,0.82,50,4.94066E-324,0.5,0,0.5,0.01,,,,,,,,,,,,,,,,,,,,,,,,,,,,,,
,,,,,ear_test_contrast,001,2023-09-21_16h47.18.494,contrast,2023.2.2,MacIntel,62.5,46.656,46.656,,,,,,,,,,,,,,,,,,,,,,,,,,,,,,,46.656,47.491,1,left,1,0.82,,0,0,0,0,1,0.821857104,starcase2,1,,TRUE,,intensity,0.7,0,1,0.5,0.82,50,4.94066E-324,0.5,0,0.5,0.01
,,,,,ear_test_contrast,001,2023-09-21_16h47.18.494,contrast,2023.2.2,MacIntel,62.5,47.493,47.493,,,,,,,,,,,,,,,,,,,,,,,,,,,,,,,47.493,48.339,1,left,1,0.836,,0,1,1,1,1,0.765072338,starcase2,1,,TRUE,,intensity,0.7,0,1,0.5,0.82,50,4.94066E-324,0.5,0,0.5,0.01
,,,,,ear_test_contrast,001,2023-09-21_16h47.18.494,contrast,2023.2.2,MacIntel,62.5,48.341,48.341,,,,,,,,,,,,,,,,,,,,,,,,,,,,,,,48.341,49.173,1,left,1,0.822,,0,2,2,2,1,0.709612489,starcase2,1,,TRUE,,intensity,0.7,0,1,0.5,0.82,50,4.94066E-324,0.5,0,0.5,0.01
,,,,,ear_test_contrast,001,2023-09-21_16h47.18.494,contrast,2023.2.2,MacIntel,62.5,49.175,49.175,,,,,,,,,,,,,,,,,,,,,,,,,,,,,,,49.175,49.975,1,right,1,0.785,,0,3,3,3,1,0.655343164,starcase2,1,,TRUE,,intensity,0.7,0,1,0.5,0.82,50,4.94066E-324,0.5,0,0.5,0.01
,,,,,ear_test_contrast,001,2023-09-21_16h47.18.494,contrast,2023.2.2,MacIntel,62.5,49.977,49.977,,,,,,,,,,,,,,,,,,,,,,,,,,,,,,,49.977,50.773,1,left,1,0.785,,0,4,4,4,1,0.602490684,starcase2,1,,TRUE,,intensity,0.7,0,1,0.5,0.82,50,4.94066E-324,0.5,0,0.5,0.01
,,,,,ear_test_contrast,001,2023-09-21_16h47.18.494,contrast,2023.2.2,MacIntel,62.5,50.775,50.775,,,,,,,,,,,,,,,,,,,,,,,,,,,,,,,50.775,51.509,0,right,0,0.717,,0,5,5,5,1,0.550874163,starcase2,1,,TRUE,,intensity,0.7,0,1,0.5,0.82,50,4.94066E-324,0.5,0,0.5,0.01
,,,,,ear_test_contrast,001,2023-09-21_16h47.18.494,contrast,2023.2.2,MacIntel,62.5,51.511,51.511,,,,,,,,,,,,,,,,,,,,,,,,,,,,,,,51.511,52.342,1,right,1,0.819,,0,6,6,6,1,0.779799974,starcase2,1,,TRUE,,intensity,0.7,0,1,0.5,0.82,50,4.94066E-324,0.5,0,0.5,0.01
,,,,,ear_test_contrast,001,2023-09-21_16h47.18.494,contrast,2023.2.2,MacIntel,62.5,52.345,52.345,,,,,,,,,,,,,,,,,,,,,,,,,,,,,,,52.345,53.14,1,left,1,0.783,,0,7,7,7,1,0.736897704,starcase2,1,,TRUE,,intensity,0.7,0,1,0.5,0.82,50,4.94066E-324,0.5,0,0.5,0.01
,,,,,ear_test_contrast,001,2023-09-21_16h47.18.494,contrast,2023.2.2,MacIntel,62.5,53.143,53.143,,,,,,,,,,,,,,,,,,,,,,,,,,,,,,,53.143,54.008,1,right,1,0.851,,0,8,8,8,1,0.695389849,starcase2,1,,TRUE,,intensity,0.7,0,1,0.5,0.82,50,4.94066E-324,0.5,0,0.5,0.01
,,,,,ear_test_contrast,001,2023-09-21_16h47.18.494,contrast,2023.2.2,MacIntel,62.5,54.01,54.01,,,,,,,,,,,,,,,,,,,,,,,,,,,,,,,54.01,54.874,1,right,1,0.852,,0,9,9,9,1,0.655237826,starcase2,1,,TRUE,,intensity,0.7,0,1,0.5,0.82,50,4.94066E-324,0.5,0,0.5,0.01
,,,,,ear_test_contrast,001,2023-09-21_16h47.18.494,contrast,2023.2.2,MacIntel,62.5,54.877,54.877,,,,,,,,,,,,,,,,,,,,,,,,,,,,,,,54.877,55.741,1,right,1,0.851,,0,10,10,10,1,0.616390784,starcase2,1,,TRUE,,intensity,0.7,0,1,0.5,0.82,50,4.94066E-324,0.5,0,0.5,0.01
,,,,,ear_test_contrast,001,2023-09-21_16h47.18.494,contrast,2023.2.2,MacIntel,62.5,55.743,55.743,,,,,,,,,,,,,,,,,,,,,,,,,,,,,,,55.743,56.573,1,left,1,0.819,,0,11,11,11,1,0.578788136,starcase2,1,,TRUE,,intensity,0.7,0,1,0.5,0.82,50,4.94066E-324,0.5,0,0.5,0.01
,,,,,ear_test_contrast,001,2023-09-21_16h47.18.494,contrast,2023.2.2,MacIntel,62.5,56.574,56.575,,,,,,,,,,,,,,,,,,,,,,,,,,,,,,,56.575,57.357,1,right,1,0.77,,0,12,12,12,1,0.542382974,starcase2,1,,TRUE,,intensity,0.7,0,1,0.5,0.82,50,4.94066E-324,0.5,0,0.5,0.01
,,,,,ear_test_contrast,001,2023-09-21_16h47.18.494,contrast,2023.2.2,MacIntel,62.5,57.358,57.358,,,,,,,,,,,,,,,,,,,,,,,,,,,,,,,57.358,58.19,1,right,1,0.818,,0,13,13,13,1,0.50710227,starcase2,1,,TRUE,,intensity,0.7,0,1,0.5,0.82,50,4.94066E-324,0.5,0,0.5,0.01
,,,,,ear_test_contrast,001,2023-09-21_16h47.18.494,contrast,2023.2.2,MacIntel,62.5,58.19,58.19,,,,,,,,,,,,,,,,,,,,,,,,,,,,,,,58.19,59.009,1,left,1,0.8,,0,14,14,14,1,0.473004019,starcase2,1,,TRUE,,intensity,0.7,0,1,0.5,0.82,50,4.94066E-324,0.5,0,0.5,0.01
,,,,,ear_test_contrast,001,2023-09-21_16h47.18.494,contrast,2023.2.2,MacIntel,62.5,59.01,59.01,,,,,,,,,,,,,,,,,,,,,,,,,,,,,,,59.01,59.84,1,right,1,0.818,,0,15,15,15,1,0.439901715,starcase2,1,,TRUE,,intensity,0.7,0,1,0.5,0.82,50,4.94066E-324,0.5,0,0.5,0.01
,,,,,ear_test_contrast,001,2023-09-21_16h47.18.494,contrast,2023.2.2,MacIntel,62.5,59.842,59.842,,,,,,,,,,,,,,,,,,,,,,,,,,,,,,,59.843,60.69,1,left,1,0.835,,0,16,16,16,1,0.407870472,starcase2,1,,TRUE,,intensity,0.7,0,1,0.5,0.82,50,4.94066E-324,0.5,0,0.5,0.01
,,,,,ear_test_contrast,001,2023-09-21_16h47.18.494,contrast,2023.2.2,MacIntel,62.5,60.691,60.691,,,,,,,,,,,,,,,,,,,,,,,,,,,,,,,60.691,61.541,1,left,1,0.834,,0,17,17,17,1,0.376828802,starcase2,1,,TRUE,,intensity,0.7,0,1,0.5,0.82,50,4.94066E-324,0.5,0,0.5,0.01
,,,,,ear_test_contrast,001,2023-09-21_16h47.18.494,contrast,2023.2.2,MacIntel,62.5,61.543,61.543,,,,,,,,,,,,,,,,,,,,,,,,,,,,,,,61.544,62.389,1,right,1,0.835,,0,18,18,18,1,0.346721177,starcase2,1,,TRUE,,intensity,0.7,0,1,0.5,0.82,50,4.94066E-324,0.5,0,0.5,0.01
,,,,,ear_test_contrast,001,2023-09-21_16h47.18.494,contrast,2023.2.2,MacIntel,62.5,62.391,62.391,,,,,,,,,,,,,,,,,,,,,,,,,,,,,,,62.391,63.223,1,right,1,0.818,,0,19,19,19,1,0.317491781,starcase2,1,,TRUE,,intensity,0.7,0,1,0.5,0.82,50,4.94066E-324,0.5,0,0.5,0.01
,,,,,ear_test_contrast,001,2023-09-21_16h47.18.494,contrast,2023.2.2,MacIntel,62.5,63.224,63.224,,,,,,,,,,,,,,,,,,,,,,,,,,,,,,,63.225,64.007,1,right,1,0.772,,0,20,20,20,1,0.289085187,starcase2,1,,TRUE,,intensity,0.7,0,1,0.5,0.82,50,4.94066E-324,0.5,0,0.5,0.01
,,,,,ear_test_contrast,001,2023-09-21_16h47.18.494,contrast,2023.2.2,MacIntel,62.5,64.01,64.01,,,,,,,,,,,,,,,,,,,,,,,,,,,,,,,64.01,64.822,1,right,1,0.802,,0,21,21,21,1,0.261461604,starcase2,1,,TRUE,,intensity,0.7,0,1,0.5,0.82,50,4.94066E-324,0.5,0,0.5,0.01
,,,,,ear_test_contrast,001,2023-09-21_16h47.18.494,contrast,2023.2.2,MacIntel,62.5,64.825,64.825,,,,,,,,,,,,,,,,,,,,,,,,,,,,,,,64.825,65.657,1,right,1,0.822,,0,22,22,22,1,0.234569472,starcase2,1,,TRUE,,intensity,0.7,0,1,0.5,0.82,50,4.94066E-324,0.5,0,0.5,0.01
,,,,,ear_test_contrast,001,2023-09-21_16h47.18.494,contrast,2023.2.2,MacIntel,62.5,65.659,65.659,,,,,,,,,,,,,,,,,,,,,,,,,,,,,,,65.659,66.44,1,right,1,0.768,,0,23,23,23,1,0.208347737,starcase2,1,,TRUE,,intensity,0.7,0,1,0.5,0.82,50,4.94066E-324,0.5,0,0.5,0.01
,,,,,ear_test_contrast,001,2023-09-21_16h47.18.494,contrast,2023.2.2,MacIntel,62.5,66.443,66.443,,,,,,,,,,,,,,,,,,,,,,,,,,,,,,,66.444,67.308,1,left,1,0.85,,0,24,24,24,1,0.182860588,starcase2,1,,TRUE,,intensity,0.7,0,1,0.5,0.82,50,4.94066E-324,0.5,0,0.5,0.01
,,,,,ear_test_contrast,001,2023-09-21_16h47.18.494,contrast,2023.2.2,MacIntel,62.5,67.31,67.31,,,,,,,,,,,,,,,,,,,,,,,,,,,,,,,67.31,68.106,1,right,1,0.784,,0,25,25,25,1,0.157969296,starcase2,1,,TRUE,,intensity,0.7,0,1,0.5,0.82,50,4.94066E-324,0.5,0,0.5,0.01
,,,,,ear_test_contrast,001,2023-09-21_16h47.18.494,contrast,2023.2.2,MacIntel,62.5,68.109,68.109,,,,,,,,,,,,,,,,,,,,,,,,,,,,,,,68.109,68.941,1,right,1,0.818,,0,26,26,26,1,0.133729922,starcase2,1,,TRUE,,intensity,0.7,0,1,0.5,0.82,50,4.94066E-324,0.5,0,0.5,0.01
,,,,,ear_test_contrast,001,2023-09-21_16h47.18.494,contrast,2023.2.2,MacIntel,62.5,68.943,68.943,,,,,,,,,,,,,,,,,,,,,,,,,,,,,,,68.943,69.774,1,right,1,0.819,,0,27,27,27,1,0.110005086,starcase2,1,,TRUE,,intensity,0.7,0,1,0.5,0.82,50,4.94066E-324,0.5,0,0.5,0.01
,,,,,ear_test_contrast,001,2023-09-21_16h47.18.494,contrast,2023.2.2,MacIntel,62.5,69.776,69.776,,,,,,,,,,,,,,,,,,,,,,,,,,,,,,,69.776,70.592,1,right,1,0.802,,0,28,28,28,1,0.08687885,starcase2,1,,TRUE,,intensity,0.7,0,1,0.5,0.82,50,4.94066E-324,0.5,0,0.5,0.01
,,,,,ear_test_contrast,001,2023-09-21_16h47.18.494,contrast,2023.2.2,MacIntel,62.5,70.593,70.593,,,,,,,,,,,,,,,,,,,,,,,,,,,,,,,70.593,71.391,1,right,1,0.786,,0,29,29,29,1,0.064287337,starcase2,1,,TRUE,,intensity,0.7,0,1,0.5,0.82,50,4.94066E-324,0.5,0,0.5,0.01
,,,,,ear_test_contrast,001,2023-09-21_16h47.18.494,contrast,2023.2.2,MacIntel,62.5,71.392,71.392,,,,,,,,,,,,,,,,,,,,,,,,,,,,,,,71.393,72.241,1,left,1,0.836,,0,30,30,30,1,0.042131301,starcase2,1,,TRUE,,intensity,0.7,0,1,0.5,0.82,50,4.94066E-324,0.5,0,0.5,0.01
,,,,,ear_test_contrast,001,2023-09-21_16h47.18.494,contrast,2023.2.2,MacIntel,62.5,72.243,72.243,,,,,,,,,,,,,,,,,,,,,,,,,,,,,,,72.244,73.255,1,left,1,1.001,,0,31,31,31,1,0.020457993,starcase2,1,,TRUE,,intensity,0.7,0,1,0.5,0.82,50,4.94066E-324,0.5,0,0.5,0.01
,,,,,ear_test_contrast,001,2023-09-21_16h47.18.494,contrast,2023.2.2,MacIntel,62.5,73.258,73.258,,,,,,,,,,,,,,,,,,,,,,,,,,,,,,,73.258,74.475,0,left,0,1.202,,0,32,32,32,1,-0.000746894,starcase2,1,,TRUE,,intensity,0.7,0,1,0.5,0.82,50,4.94066E-324,0.5,0,0.5,0.01
,,,,,ear_test_contrast,001,2023-09-21_16h47.18.494,contrast,2023.2.2,MacIntel,62.5,74.476,74.476,,,,,,,,,,,,,,,,,,,,,,,,,,,,,,,74.476,75.324,1,left,1,0.832,,0,33,33,33,1,0.096213736,starcase2,1,,TRUE,,intensity,0.7,0,1,0.5,0.82,50,4.94066E-324,0.5,0,0.5,0.01
,,,,,ear_test_contrast,001,2023-09-21_16h47.18.494,contrast,2023.2.2,MacIntel,62.5,75.326,75.326,,,,,,,,,,,,,,,,,,,,,,,,,,,,,,,75.326,76.174,1,left,1,0.834,,0,34,34,34,1,0.076193332,starcase2,1,,TRUE,,intensity,0.7,0,1,0.5,0.82,50,4.94066E-324,0.5,0,0.5,0.01
,,,,,ear_test_contrast,001,2023-09-21_16h47.18.494,contrast,2023.2.2,MacIntel,62.5,76.176,76.176,,,,,,,,,,,,,,,,,,,,,,,,,,,,,,,76.176,77.107,1,left,1,0.917,,0,35,35,35,1,0.05661471,starcase2,1,,TRUE,,intensity,0.7,0,1,0.5,0.82,50,4.94066E-324,0.5,0,0.5,0.01
,,,,,ear_test_contrast,001,2023-09-21_16h47.18.494,contrast,2023.2.2,MacIntel,62.5,77.11,77.11,,,,,,,,,,,,,,,,,,,,,,,,,,,,,,,77.11,77.956,1,right,1,0.834,,0,36,36,36,1,0.037453646,starcase2,1,,TRUE,,intensity,0.7,0,1,0.5,0.82,50,4.94066E-324,0.5,0,0.5,0.01
,,,,,ear_test_contrast,001,2023-09-21_16h47.18.494,contrast,2023.2.2,MacIntel,62.5,77.957,77.957,,,,,,,,,,,,,,,,,,,,,,,,,,,,,,,77.957,78.807,1,left,1,0.833,,0,37,37,37,1,0.018686902,starcase2,1,,TRUE,,intensity,0.7,0,1,0.5,0.82,50,4.94066E-324,0.5,0,0.5,0.01
,,,,,ear_test_contrast,001,2023-09-21_16h47.18.494,contrast,2023.2.2,MacIntel,62.5,78.808,78.808,,,,,,,,,,,,,,,,,,,,,,,,,,,,,,,78.809,79.99,1,right,1,1.168,,0,38,38,38,1,0.000295839,starcase2,1,,TRUE,,intensity,0.7,0,1,0.5,0.82,50,4.94066E-324,0.5,0,0.5,0.01
,,,,,ear_test_contrast,001,2023-09-21_16h47.18.494,contrast,2023.2.2,MacIntel,62.5,79.993,79.993,,,,,,,,,,,,,,,,,,,,,,,,,,,,,,,79.993,81.04,1,left,1,1.035,,0,39,39,39,1,-0.017724386,starcase2,1,,TRUE,,intensity,0.7,0,1,0.5,0.82,50,4.94066E-324,0.5,0,0.5,0.01
,,,,,ear_test_contrast,001,2023-09-21_16h47.18.494,contrast,2023.2.2,MacIntel,62.5,81.042,81.042,,,,,,,,,,,,,,,,,,,,,,,,,,,,,,,81.043,82.139,1,left,1,1.085,,0,40,40,40,1,-0.035410737,starcase2,1,,TRUE,,intensity,0.7,0,1,0.5,0.82,50,4.94066E-324,0.5,0,0.5,0.01
,,,,,ear_test_contrast,001,2023-09-21_16h47.18.494,contrast,2023.2.2,MacIntel,62.5,82.141,82.141,,,,,,,,,,,,,,,,,,,,,,,,,,,,,,,82.141,83.39,1,left,1,1.233,,0,41,41,41,1,-0.052782833,starcase2,1,,TRUE,,intensity,0.7,0,1,0.5,0.82,50,4.94066E-324,0.5,0,0.5,0.01
,,,,,ear_test_contrast,001,2023-09-21_16h47.18.494,contrast,2023.2.2,MacIntel,62.5,83.391,83.391,,,,,,,,,,,,,,,,,,,,,,,,,,,,,,,83.391,84.357,1,left,1,0.951,,0,42,42,42,1,-0.069802354,starcase2,1,,TRUE,,intensity,0.7,0,1,0.5,0.82,50,4.94066E-324,0.5,0,0.5,0.01
,,,,,ear_test_contrast,001,2023-09-21_16h47.18.494,contrast,2023.2.2,MacIntel,62.5,84.36,84.36,,,,,,,,,,,,,,,,,,,,,,,,,,,,,,,84.36,85.257,0,left,0,0.885,,0,43,43,43,1,-0.086506085,starcase2,1,,TRUE,,intensity,0.7,0,1,0.5,0.82,50,4.94066E-324,0.5,0,0.5,0.01
,,,,,ear_test_contrast,001,2023-09-21_16h47.18.494,contrast,2023.2.2,MacIntel,62.5,85.259,85.259,,,,,,,,,,,,,,,,,,,,,,,,,,,,,,,85.259,86.143,0,left,0,0.867,,0,44,44,44,1,-0.010226756,starcase2,1,,TRUE,,intensity,0.7,0,1,0.5,0.82,50,4.94066E-324,0.5,0,0.5,0.01
,,,,,ear_test_contrast,001,2023-09-21_16h47.18.494,contrast,2023.2.2,MacIntel,62.5,86.144,86.144,,,,,,,,,,,,,,,,,,,,,,,,,,,,,,,86.144,87.09,1,right,1,0.934,,0,45,45,45,1,0.06485188,starcase2,1,,TRUE,,intensity,0.7,0,1,0.5,0.82,50,4.94066E-324,0.5,0,0.5,0.01
,,,,,ear_test_contrast,001,2023-09-21_16h47.18.494,contrast,2023.2.2,MacIntel,62.5,87.092,87.092,,,,,,,,,,,,,,,,,,,,,,,,,,,,,,,87.092,87.956,1,right,1,0.852,,0,46,46,46,1,0.048956131,starcase2,1,,TRUE,,intensity,0.7,0,1,0.5,0.82,50,4.94066E-324,0.5,0,0.5,0.01
,,,,,ear_test_contrast,001,2023-09-21_16h47.18.494,contrast,2023.2.2,MacIntel,62.5,87.958,87.958,,,,,,,,,,,,,,,,,,,,,,,,,,,,,,,87.959,88.79,1,left,1,0.816,,0,47,47,47,1,0.033428393,starcase2,1,,TRUE,,intensity,0.7,0,1,0.5,0.82,50,4.94066E-324,0.5,0,0.5,0.01
,,,,,ear_test_contrast,001,2023-09-21_16h47.18.494,contrast,2023.2.2,MacIntel,62.5,88.792,88.792,,,,,,,,,,,,,,,,,,,,,,,,,,,,,,,88.792,89.722,1,left,1,0.917,,0,48,48,48,1,0.018170576,starcase2,1,,TRUE,,intensity,0.7,0,1,0.5,0.82,50,4.94066E-324,0.5,0,0.5,0.01
,,,,,ear_test_contrast,001,2023-09-21_16h47.18.494,contrast,2023.2.2,MacIntel,62.5,89.724,89.724,,,,,,,,,,,,,,,,,,,,,,,,,,,,,,,89.725,90.656,1,left,1,0.918,,0,49,49,49,1,0.003241001,starcase2,1,,TRUE,,intensity,0.7,0,1,0.5,0.82,50,4.94066E-324,0.5,0,0.5,0.01