instructions.started,instructions.stopped,key_resp.keys,key_resp.rt,key_resp.duration,participant,session,date,expName,psychopyVersion,OS,frameRate,updateTilt.started,updateTilt.stopped,trial.started,trial.stopped,trials.response,resp.keys,resp.corr,resp.rt,resp.duration,trials.thisRepN,trials.thisTrialN,trials.thisN,trials.thisIndex,trials.ran,trials.intensity,trials.label,trials.nReps,trials.method,trials.autoLog,trials.seed,trials.varName,trials.startVal,trials.minVal,trials.maxVal,trials.startValSd,trials.pThreshold,trials.nTrials,trials.stopInterval,trials.beta,trials.delta,trials.gamma,trials.grain,Instructions2.started,Instructions2.stopped,key_resp_2.keys,key_resp_2.rt,key_resp_2.duration,updateTilt2.started,updateTilt2.stopped,trials_2.response,trials_2.thisRepN,trials_2.thisTrialN,trials_2.thisN,trials_2.thisIndex,trials_2.ran,trials_2.intensity,trials_2.label,trials_2.nReps,trials_2.method,trials_2.autoLog,trials_2.seed,trials_2.varName,trials_2.startVal,trials_2.minVal,trials_2.maxVal,trials_2.startValSd,trials_2.pThreshold,trials_2.nTrials,trials_2.stopInterval,trials_2.beta,trials_2.delta,trials_2.gamma,trials_2.grain
0,1.958,right,1.933,,ear_test,001,2023-09-21_15h40.40.811,orientation,2023.2.2,MacIntel,62.5,,,,,,,,,,,,,,,,,,,,,,,,,,,,,,,,,,,,,,,,,,,,,,,,,,,,,,,,,,,,,,,
,,,,,ear_test,001,2023-09-21_15h40.40.811,orientation,2023.2.2,MacIntel,62.5,1.992,1.992,1.992,3.074,1,right,1,1.072,,0,0,0,0,1,49.29044842,staircase1,1,,TRUE,,intensity,45,1,45,20,0.6,50,4.94066E-324,10,0.01,0.5,0.5,,,,,,,,,,,,,,,,,,,,,,,,,,,,,,,
,,,,,ear_test,001,2023-09-21_15h40.40.811,orientation,2023.2.2,MacIntel,62.5,3.076,3.076,3.076,4.023,1,right,1,0.936,,0,1,1,1,1,43.13268495,staircase1,1,,TRUE,,intensity,45,1,45,20,0.6,50,4.94066E-324,10,0.01,0.5,0.5,,,,,,,,,,,,,,,,,,,,,,,,,,,,,,,
,,,,,ear_test,001,2023-09-21_15h40.40.811,orientation,2023.2.2,MacIntel,62.5,4.025,4.025,4.025,4.958,1,left,1,0.918,,0,2,2,2,1,38.04034103,staircase1,1,,TRUE,,intensity,45,1,45,20,0.6,50,4.94066E-324,10,0.01,0.5,0.5,,,,,,,,,,,,,,,,,,,,,,,,,,,,,,,
,,,,,ear_test,001,2023-09-21_15h40.40.811,orientation,2023.2.2,MacIntel,62.5,4.963,4.963,4.964,5.94,1,left,1,0.963,,0,3,3,3,1,33.70670546,staircase1,1,,TRUE,,intensity,45,1,45,20,0.6,50,4.94066E-324,10,0.01,0.5,0.5,,,,,,,,,,,,,,,,,,,,,,,,,,,,,,,
,,,,,ear_test,001,2023-09-21_15h40.40.811,orientation,2023.2.2,MacIntel,62.5,5.942,5.942,5.942,6.86,1,left,1,0.902,,0,4,4,4,1,29.81642572,staircase1,1,,TRUE,,intensity,45,1,45,20,0.6,50,4.94066E-324,10,0.01,0.5,0.5,,,,,,,,,,,,,,,,,,,,,,,,,,,,,,,
,,,,,ear_test,001,2023-09-21_15h40.40.811,orientation,2023.2.2,MacIntel,62.5,6.861,6.861,6.861,7.841,1,right,1,0.967,,0,5,5,5,1,26.42622624,staircase1,1,,TRUE,,intensity,45,1,45,20,0.6,50,4.94066E-324,10,0.01,0.5,0.5,,,,,,,,,,,,,,,,,,,,,,,,,,,,,,,
,,,,,ear_test,001,2023-09-21_15h40.40.811,orientation,2023.2.2,MacIntel,62.5,7.845,7.845,7.845,8.772,1,right,1,0.914,,0,6,6,6,1,23.27429979,staircase1,1,,TRUE,,intensity,45,1,45,20,0.6,50,4.94066E-324,10,0.01,0.5,0.5,,,,,,,,,,,,,,,,,,,,,,,,,,,,,,,
,,,,,ear_test,001,2023-09-21_15h40.40.811,orientation,2023.2.2,MacIntel,62.5,8.774,8.774,8.775,9.739,1,right,1,0.95,,0,7,7,7,1,20.39878437,staircase1,1,,TRUE,,intensity,45,1,45,20,0.6,50,4.94066E-324,10,0.01,0.5,0.5,,,,,,,,,,,,,,,,,,,,,,,,,,,,,,,
,,,,,ear_test,001,2023-09-21_15h40.40.811,orientation,2023.2.2,MacIntel,62.5,9.742,9.742,9.743,10.64,1,left,1,0.883,,0,8,8,8,1,17.6608419,staircase1,1,,TRUE,,intensity,45,1,45,20,0.6,50,4.94066E-324,10,0.01,0.5,0.5,,,,,,,,,,,,,,,,,,,,,,,,,,,,,,,
,,,,,ear_test,001,2023-09-21_15h40.40.811,orientation,2023.2.2,MacIntel,62.5,10.642,10.642,10.642,11.541,1,right,1,0.884,,0,9,9,9,1,14.98987623,staircase1,1,,TRUE,,intensity,45,1,45,20,0.6,50,4.94066E-324,10,0.01,0.5,0.5,,,,,,,,,,,,,,,,,,,,,,,,,,,,,,,
,,,,,ear_test,001,2023-09-21_15h40.40.811,orientation,2023.2.2,MacIntel,62.5,11.544,11.544,11.544,12.593,1,left,1,1.034,,0,10,10,10,1,12.51183424,staircase1,1,,TRUE,,intensity,45,1,45,20,0.6,50,4.94066E-324,10,0.01,0.5,0.5,,,,,,,,,,,,,,,,,,,,,,,,,,,,,,,
,,,,,ear_test,001,2023-09-21_15h40.40.811,orientation,2023.2.2,MacIntel,62.5,12.594,12.594,12.594,13.568,1,right,1,0.966,,0,11,11,11,1,10.13901925,staircase1,1,,TRUE,,intensity,45,1,45,20,0.6,50,4.94066E-324,10,0.01,0.5,0.5,,,,,,,,,,,,,,,,,,,,,,,,,,,,,,,
,,,,,ear_test,001,2023-09-21_15h40.40.811,orientation,2023.2.2,MacIntel,62.5,13.569,13.569,13.569,14.592,1,right,1,1.011,,0,12,12,12,1,7.82415494,staircase1,1,,TRUE,,intensity,45,1,45,20,0.6,50,4.94066E-324,10,0.01,0.5,0.5,,,,,,,,,,,,,,,,,,,,,,,,,,,,,,,
,,,,,ear_test,001,2023-09-21_15h40.40.811,orientation,2023.2.2,MacIntel,62.5,14.596,14.596,14.597,15.656,1,left,1,1.05,,0,13,13,13,1,5.708394291,staircase1,1,,TRUE,,intensity,45,1,45,20,0.6,50,4.94066E-324,10,0.01,0.5,0.5,,,,,,,,,,,,,,,,,,,,,,,,,,,,,,,
,,,,,ear_test,001,2023-09-21_15h40.40.811,orientation,2023.2.2,MacIntel,62.5,15.662,15.662,15.662,17.441,1,right,1,1.767,,0,14,14,14,1,3.539593081,staircase1,1,,TRUE,,intensity,45,1,45,20,0.6,50,4.94066E-324,10,0.01,0.5,0.5,,,,,,,,,,,,,,,,,,,,,,,,,,,,,,,
,,,,,ear_test,001,2023-09-21_15h40.40.811,orientation,2023.2.2,MacIntel,62.5,17.443,17.443,17.443,18.79,0,left,0,1.336,,0,15,15,15,1,1.501704682,staircase1,1,,TRUE,,intensity,45,1,45,20,0.6,50,4.94066E-324,10,0.01,0.5,0.5,,,,,,,,,,,,,,,,,,,,,,,,,,,,,,,
,,,,,ear_test,001,2023-09-21_15h40.40.811,orientation,2023.2.2,MacIntel,62.5,18.792,18.792,18.793,19.84,1,left,1,1.035,,0,16,16,16,1,5.253279716,staircase1,1,,TRUE,,intensity,45,1,45,20,0.6,50,4.94066E-324,10,0.01,0.5,0.5,,,,,,,,,,,,,,,,,,,,,,,,,,,,,,,
,,,,,ear_test,001,2023-09-21_15h40.40.811,orientation,2023.2.2,MacIntel,62.5,19.841,19.841,19.841,20.857,1,left,1,1.003,,0,17,17,17,1,4.031902012,staircase1,1,,TRUE,,intensity,45,1,45,20,0.6,50,4.94066E-324,10,0.01,0.5,0.5,,,,,,,,,,,,,,,,,,,,,,,,,,,,,,,
,,,,,ear_test,001,2023-09-21_15h40.40.811,orientation,2023.2.2,MacIntel,62.5,20.86,20.86,20.86,21.824,1,left,1,0.95,,0,18,18,18,1,2.969495497,staircase1,1,,TRUE,,intensity,45,1,45,20,0.6,50,4.94066E-324,10,0.01,0.5,0.5,,,,,,,,,,,,,,,,,,,,,,,,,,,,,,,
,,,,,ear_test,001,2023-09-21_15h40.40.811,orientation,2023.2.2,MacIntel,62.5,21.827,21.827,21.827,22.758,1,left,1,0.917,,0,19,19,19,1,2.444379942,staircase1,1,,TRUE,,intensity,45,1,45,20,0.6,50,4.94066E-324,10,0.01,0.5,0.5,,,,,,,,,,,,,,,,,,,,,,,,,,,,,,,
,,,,,ear_test,001,2023-09-21_15h40.40.811,orientation,2023.2.2,MacIntel,62.5,22.76,22.76,22.76,23.593,1,left,1,0.821,,0,20,20,20,1,2.041768949,staircase1,1,,TRUE,,intensity,45,1,45,20,0.6,50,4.94066E-324,10,0.01,0.5,0.5,,,,,,,,,,,,,,,,,,,,,,,,,,,,,,,
,,,,,ear_test,001,2023-09-21_15h40.40.811,orientation,2023.2.2,MacIntel,62.5,23.594,23.594,23.594,24.524,0,left,0,0.922,,0,21,21,21,1,1.80038536,staircase1,1,,TRUE,,intensity,45,1,45,20,0.6,50,4.94066E-324,10,0.01,0.5,0.5,,,,,,,,,,,,,,,,,,,,,,,,,,,,,,,
,,,,,ear_test,001,2023-09-21_15h40.40.811,orientation,2023.2.2,MacIntel,62.5,24.526,24.526,24.526,25.625,0,left,0,1.088,,0,22,22,22,1,2.455767663,staircase1,1,,TRUE,,intensity,45,1,45,20,0.6,50,4.94066E-324,10,0.01,0.5,0.5,,,,,,,,,,,,,,,,,,,,,,,,,,,,,,,
,,,,,ear_test,001,2023-09-21_15h40.40.811,orientation,2023.2.2,MacIntel,62.5,25.626,25.626,25.626,26.64,1,left,1,1.003,,0,23,23,23,1,3.293024762,staircase1,1,,TRUE,,intensity,45,1,45,20,0.6,50,4.94066E-324,10,0.01,0.5,0.5,,,,,,,,,,,,,,,,,,,,,,,,,,,,,,,
,,,,,ear_test,001,2023-09-21_15h40.40.811,orientation,2023.2.2,MacIntel,62.5,26.641,26.641,26.641,27.659,1,left,1,0.999,,0,24,24,24,1,2.779709937,staircase1,1,,TRUE,,intensity,45,1,45,20,0.6,50,4.94066E-324,10,0.01,0.5,0.5,,,,,,,,,,,,,,,,,,,,,,,,,,,,,,,
,,,,,ear_test,001,2023-09-21_15h40.40.811,orientation,2023.2.2,MacIntel,62.5,27.66,27.66,27.66,28.924,1,right,1,1.248,,0,25,25,25,1,2.470519312,staircase1,1,,TRUE,,intensity,45,1,45,20,0.6,50,4.94066E-324,10,0.01,0.5,0.5,,,,,,,,,,,,,,,,,,,,,,,,,,,,,,,
,,,,,ear_test,001,2023-09-21_15h40.40.811,orientation,2023.2.2,MacIntel,62.5,28.926,28.926,28.926,30.307,1,right,1,1.367,,0,26,26,26,1,2.466538262,staircase1,1,,TRUE,,intensity,45,1,45,20,0.6,50,4.94066E-324,10,0.01,0.5,0.5,,,,,,,,,,,,,,,,,,,,,,,,,,,,,,,
,,,,,ear_test,001,2023-09-21_15h40.40.811,orientation,2023.2.2,MacIntel,62.5,30.309,30.309,30.309,31.425,0,left,0,1.1,,0,27,27,27,1,2.458688742,staircase1,1,,TRUE,,intensity,45,1,45,20,0.6,50,4.94066E-324,10,0.01,0.5,0.5,,,,,,,,,,,,,,,,,,,,,,,,,,,,,,,
,,,,,ear_test,001,2023-09-21_15h40.40.811,orientation,2023.2.2,MacIntel,62.5,31.426,31.426,31.427,32.526,1,left,1,1.087,,0,28,28,28,1,2.474245727,staircase1,1,,TRUE,,intensity,45,1,45,20,0.6,50,4.94066E-324,10,0.01,0.5,0.5,,,,,,,,,,,,,,,,,,,,,,,,,,,,,,,
,,,,,ear_test,001,2023-09-21_15h40.40.811,orientation,2023.2.2,MacIntel,62.5,32.527,32.527,32.527,33.49,1,left,1,0.95,,0,29,29,29,1,2.474020557,staircase1,1,,TRUE,,intensity,45,1,45,20,0.6,50,4.94066E-324,10,0.01,0.5,0.5,,,,,,,,,,,,,,,,,,,,,,,,,,,,,,,
,,,,,ear_test,001,2023-09-21_15h40.40.811,orientation,2023.2.2,MacIntel,62.5,33.493,33.493,33.493,34.523,1,left,1,1.017,,0,30,30,30,1,2.473642277,staircase1,1,,TRUE,,intensity,45,1,45,20,0.6,50,4.94066E-324,10,0.01,0.5,0.5,,,,,,,,,,,,,,,,,,,,,,,,,,,,,,,
,,,,,ear_test,001,2023-09-21_15h40.40.811,orientation,2023.2.2,MacIntel,62.5,34.525,34.525,34.525,35.406,1,left,1,0.867,,0,31,31,31,1,2.472959404,staircase1,1,,TRUE,,intensity,45,1,45,20,0.6,50,4.94066E-324,10,0.01,0.5,0.5,,,,,,,,,,,,,,,,,,,,,,,,,,,,,,,
,,,,,ear_test,001,2023-09-21_15h40.40.811,orientation,2023.2.2,MacIntel,62.5,35.409,35.409,35.409,36.34,1,left,1,0.922,,0,32,32,32,1,2.471670597,staircase1,1,,TRUE,,intensity,45,1,45,20,0.6,50,4.94066E-324,10,0.01,0.5,0.5,,,,,,,,,,,,,,,,,,,,,,,,,,,,,,,
,,,,,ear_test,001,2023-09-21_15h40.40.811,orientation,2023.2.2,MacIntel,62.5,36.343,36.343,36.344,37.423,1,left,1,1.07,,0,33,33,33,1,2.469176431,staircase1,1,,TRUE,,intensity,45,1,45,20,0.6,50,4.94066E-324,10,0.01,0.5,0.5,,,,,,,,,,,,,,,,,,,,,,,,,,,,,,,
,,,,,ear_test,001,2023-09-21_15h40.40.811,orientation,2023.2.2,MacIntel,62.5,37.424,37.425,37.425,38.357,1,left,1,0.916,,0,34,34,34,1,2.464284509,staircase1,1,,TRUE,,intensity,45,1,45,20,0.6,50,4.94066E-324,10,0.01,0.5,0.5,,,,,,,,,,,,,,,,,,,,,,,,,,,,,,,
,,,,,ear_test,001,2023-09-21_15h40.40.811,orientation,2023.2.2,MacIntel,62.5,38.359,38.359,38.359,39.273,1,left,1,0.9,,0,35,35,35,1,2.454622901,staircase1,1,,TRUE,,intensity,45,1,45,20,0.6,50,4.94066E-324,10,0.01,0.5,0.5,,,,,,,,,,,,,,,,,,,,,,,,,,,,,,,
,,,,,ear_test,001,2023-09-21_15h40.40.811,orientation,2023.2.2,MacIntel,62.5,39.276,39.276,39.276,40.19,0,left,0,0.9,,0,36,36,36,1,2.435473306,staircase1,1,,TRUE,,intensity,45,1,45,20,0.6,50,4.94066E-324,10,0.01,0.5,0.5,,,,,,,,,,,,,,,,,,,,,,,,,,,,,,,
,,,,,ear_test,001,2023-09-21_15h40.40.811,orientation,2023.2.2,MacIntel,62.5,40.191,40.191,40.191,41.358,1,left,1,1.15,,0,37,37,37,1,2.473526451,staircase1,1,,TRUE,,intensity,45,1,45,20,0.6,50,4.94066E-324,10,0.01,0.5,0.5,,,,,,,,,,,,,,,,,,,,,,,,,,,,,,,
,,,,,ear_test,001,2023-09-21_15h40.40.811,orientation,2023.2.2,MacIntel,62.5,41.359,41.36,41.36,42.289,0,right,0,0.921,,0,38,38,38,1,2.473076598,staircase1,1,,TRUE,,intensity,45,1,45,20,0.6,50,4.94066E-324,10,0.01,0.5,0.5,,,,,,,,,,,,,,,,,,,,,,,,,,,,,,,
,,,,,ear_test,001,2023-09-21_15h40.40.811,orientation,2023.2.2,MacIntel,62.5,42.292,42.292,42.292,43.29,0,left,0,0.983,,0,39,39,39,1,2.473902658,staircase1,1,,TRUE,,intensity,45,1,45,20,0.6,50,4.94066E-324,10,0.01,0.5,0.5,,,,,,,,,,,,,,,,,,,,,,,,,,,,,,,
,,,,,ear_test,001,2023-09-21_15h40.40.811,orientation,2023.2.2,MacIntel,62.5,43.291,43.291,43.292,44.39,0,left,0,1.086,,0,40,40,40,1,2.473980448,staircase1,1,,TRUE,,intensity,45,1,45,20,0.6,50,4.94066E-324,10,0.01,0.5,0.5,,,,,,,,,,,,,,,,,,,,,,,,,,,,,,,
,,,,,ear_test,001,2023-09-21_15h40.40.811,orientation,2023.2.2,MacIntel,62.5,44.393,44.393,44.393,45.307,0,left,0,0.907,,0,41,41,41,1,2.474050778,staircase1,1,,TRUE,,intensity,45,1,45,20,0.6,50,4.94066E-324,10,0.01,0.5,0.5,,,,,,,,,,,,,,,,,,,,,,,,,,,,,,,
,,,,,ear_test,001,2023-09-21_15h40.40.811,orientation,2023.2.2,MacIntel,62.5,45.308,45.308,45.308,46.223,1,left,1,0.901,,0,42,42,42,1,2.474121062,staircase1,1,,TRUE,,intensity,45,1,45,20,0.6,50,4.94066E-324,10,0.01,0.5,0.5,,,,,,,,,,,,,,,,,,,,,,,,,,,,,,,
,,,,,ear_test,001,2023-09-21_15h40.40.811,orientation,2023.2.2,MacIntel,62.5,46.225,46.226,46.226,47.107,0,right,0,0.866,,0,43,43,43,1,2.474050807,staircase1,1,,TRUE,,intensity,45,1,45,20,0.6,50,4.94066E-324,10,0.01,0.5,0.5,,,,,,,,,,,,,,,,,,,,,,,,,,,,,,,
,,,,,ear_test,001,2023-09-21_15h40.40.811,orientation,2023.2.2,MacIntel,62.5,47.109,47.109,47.11,47.958,1,left,1,0.839,,0,44,44,44,1,2.474121089,staircase1,1,,TRUE,,intensity,45,1,45,20,0.6,50,4.94066E-324,10,0.01,0.5,0.5,,,,,,,,,,,,,,,,,,,,,,,,,,,,,,,
,,,,,ear_test,001,2023-09-21_15h40.40.811,orientation,2023.2.2,MacIntel,62.5,47.96,47.96,47.96,48.94,0,left,0,0.967,,0,45,45,45,1,2.474050834,staircase1,1,,TRUE,,intensity,45,1,45,20,0.6,50,4.94066E-324,10,0.01,0.5,0.5,,,,,,,,,,,,,,,,,,,,,,,,,,,,,,,
,,,,,ear_test,001,2023-09-21_15h40.40.811,orientation,2023.2.2,MacIntel,62.5,48.941,48.941,48.942,49.84,0,left,0,0.883,,0,46,46,46,1,2.474121117,staircase1,1,,TRUE,,intensity,45,1,45,20,0.6,50,4.94066E-324,10,0.01,0.5,0.5,,,,,,,,,,,,,,,,,,,,,,,,,,,,,,,
,,,,,ear_test,001,2023-09-21_15h40.40.811,orientation,2023.2.2,MacIntel,62.5,49.842,49.842,49.843,50.674,0,right,0,0.821,,0,47,47,47,1,2.474191427,staircase1,1,,TRUE,,intensity,45,1,45,20,0.6,50,4.94066E-324,10,0.01,0.5,0.5,,,,,,,,,,,,,,,,,,,,,,,,,,,,,,,
,,,,,ear_test,001,2023-09-21_15h40.40.811,orientation,2023.2.2,MacIntel,62.5,50.676,50.676,50.676,51.491,1,left,1,0.807,,0,48,48,48,1,2.474261765,staircase1,1,,TRUE,,intensity,45,1,45,20,0.6,50,4.94066E-324,10,0.01,0.5,0.5,,,,,,,,,,,,,,,,,,,,,,,,,,,,,,,
,,,,,ear_test,001,2023-09-21_15h40.40.811,orientation,2023.2.2,MacIntel,62.5,51.493,51.493,51.493,52.723,1,right,1,1.219,,0,49,49,49,1,2.474191454,staircase1,1,,TRUE,,intensity,45,1,45,20,0.6,50,4.94066E-324,10,0.01,0.5,0.5,,,,,,,,,,,,,,,,,,,,,,,,,,,,,,,
,,,,,ear_test,001,2023-09-21_15h40.40.811,orientation,2023.2.2,MacIntel,62.5,,,,,,,,,,,,,,,,,,,,,,,,,,,,,,,,,52.724,54.325,right,1.59,,,,,,,,,,,,,,,,,,,,,,,,,,,
,,,,,ear_test,001,2023-09-21_15h40.40.811,orientation,2023.2.2,MacIntel,62.5,,,54.339,55.523,,right,1,1.17,,,,,,,,,,,,,,,,,,,,,,,,,,,,,,54.339,54.339,1,0,0,0,0,1,34.29044842,starcase2,1,,TRUE,,intensity,30,1,45,20,0.6,50,4.94066E-324,10,0.01,0.5,0.5
,,,,,ear_test,001,2023-09-21_15h40.40.811,orientation,2023.2.2,MacIntel,62.5,,,55.525,56.558,,right,1,1.016,,,,,,,,,,,,,,,,,,,,,,,,,,,,,,55.525,55.525,1,0,1,1,1,1,28.13268495,starcase2,1,,TRUE,,intensity,30,1,45,20,0.6,50,4.94066E-324,10,0.01,0.5,0.5
,,,,,ear_test,001,2023-09-21_15h40.40.811,orientation,2023.2.2,MacIntel,62.5,,,56.56,57.472,,right,1,0.903,,,,,,,,,,,,,,,,,,,,,,,,,,,,,,56.559,56.559,1,0,2,2,2,1,23.04034103,starcase2,1,,TRUE,,intensity,30,1,45,20,0.6,50,4.94066E-324,10,0.01,0.5,0.5
,,,,,ear_test,001,2023-09-21_15h40.40.811,orientation,2023.2.2,MacIntel,62.5,,,57.475,58.391,,right,1,0.901,,,,,,,,,,,,,,,,,,,,,,,,,,,,,,57.474,57.475,1,0,3,3,3,1,18.70670546,starcase2,1,,TRUE,,intensity,30,1,45,20,0.6,50,4.94066E-324,10,0.01,0.5,0.5
,,,,,ear_test,001,2023-09-21_15h40.40.811,orientation,2023.2.2,MacIntel,62.5,,,58.393,59.339,,left,1,0.938,,,,,,,,,,,,,,,,,,,,,,,,,,,,,,58.393,58.393,1,0,4,4,4,1,14.81642572,starcase2,1,,TRUE,,intensity,30,1,45,20,0.6,50,4.94066E-324,10,0.01,0.5,0.5
,,,,,ear_test,001,2023-09-21_15h40.40.811,orientation,2023.2.2,MacIntel,62.5,,,59.342,60.307,,left,1,0.953,,,,,,,,,,,,,,,,,,,,,,,,,,,,,,59.342,59.342,1,0,5,5,5,1,11.42622624,starcase2,1,,TRUE,,intensity,30,1,45,20,0.6,50,4.94066E-324,10,0.01,0.5,0.5
,,,,,ear_test,001,2023-09-21_15h40.40.811,orientation,2023.2.2,MacIntel,62.5,,,60.31,61.306,,right,1,0.983,,,,,,,,,,,,,,,,,,,,,,,,,,,,,,60.308,60.31,1,0,6,6,6,1,8.27429979,starcase2,1,,TRUE,,intensity,30,1,45,20,0.6,50,4.94066E-324,10,0.01,0.5,0.5
,,,,,ear_test,001,2023-09-21_15h40.40.811,orientation,2023.2.2,MacIntel,62.5,,,61.308,62.208,,left,1,0.883,,,,,,,,,,,,,,,,,,,,,,,,,,,,,,61.308,61.308,1,0,7,7,7,1,5.398784366,starcase2,1,,TRUE,,intensity,30,1,45,20,0.6,50,4.94066E-324,10,0.01,0.5,0.5
,,,,,ear_test,001,2023-09-21_15h40.40.811,orientation,2023.2.2,MacIntel,62.5,,,62.21,63.373,,right,1,1.152,,,,,,,,,,,,,,,,,,,,,,,,,,,,,,62.209,62.21,1,0,8,8,8,1,2.660841897,starcase2,1,,TRUE,,intensity,30,1,45,20,0.6,50,4.94066E-324,10,0.01,0.5,0.5
,,,,,ear_test,001,2023-09-21_15h40.40.811,orientation,2023.2.2,MacIntel,62.5,,,63.377,64.341,,right,0,0.95,,,,,,,,,,,,,,,,,,,,,,,,,,,,,,63.377,63.377,0,0,9,9,9,1,-0.010123769,starcase2,1,,TRUE,,intensity,30,1,45,20,0.6,50,4.94066E-324,10,0.01,0.5,0.5
,,,,,ear_test,001,2023-09-21_15h40.40.811,orientation,2023.2.2,MacIntel,62.5,,,64.344,65.356,,right,1,1.003,,,,,,,,,,,,,,,,,,,,,,,,,,,,,,64.344,64.344,1,0,10,10,10,1,4.889377891,starcase2,1,,TRUE,,intensity,30,1,45,20,0.6,50,4.94066E-324,10,0.01,0.5,0.5
,,,,,ear_test,001,2023-09-21_15h40.40.811,orientation,2023.2.2,MacIntel,62.5,,,65.359,66.357,,right,0,0.983,,,,,,,,,,,,,,,,,,,,,,,,,,,,,,65.358,65.358,0,0,11,11,11,1,3.3693045,starcase2,1,,TRUE,,intensity,30,1,45,20,0.6,50,4.94066E-324,10,0.01,0.5,0.5
,,,,,ear_test,001,2023-09-21_15h40.40.811,orientation,2023.2.2,MacIntel,62.5,,,66.36,67.573,,right,0,1.202,,,,,,,,,,,,,,,,,,,,,,,,,,,,,,66.358,66.358,0,0,12,12,12,1,7.28325271,starcase2,1,,TRUE,,intensity,30,1,45,20,0.6,50,4.94066E-324,10,0.01,0.5,0.5
,,,,,ear_test,001,2023-09-21_15h40.40.811,orientation,2023.2.2,MacIntel,62.5,,,67.575,68.556,,right,1,0.967,,,,,,,,,,,,,,,,,,,,,,,,,,,,,,67.575,67.575,1,0,13,13,13,1,13.14658706,starcase2,1,,TRUE,,intensity,30,1,45,20,0.6,50,4.94066E-324,10,0.01,0.5,0.5
,,,,,ear_test,001,2023-09-21_15h40.40.811,orientation,2023.2.2,MacIntel,62.5,,,68.559,69.523,,left,1,0.95,,,,,,,,,,,,,,,,,,,,,,,,,,,,,,68.558,68.558,1,0,14,14,14,1,10.86266647,starcase2,1,,TRUE,,intensity,30,1,45,20,0.6,50,4.94066E-324,10,0.01,0.5,0.5
,,,,,ear_test,001,2023-09-21_15h40.40.811,orientation,2023.2.2,MacIntel,62.5,,,69.525,70.475,,right,1,0.933,,,,,,,,,,,,,,,,,,,,,,,,,,,,,,69.525,69.525,1,0,15,15,15,1,9.818543995,starcase2,1,,TRUE,,intensity,30,1,45,20,0.6,50,4.94066E-324,10,0.01,0.5,0.5
,,,,,ear_test,001,2023-09-21_15h40.40.811,orientation,2023.2.2,MacIntel,62.5,,,70.476,71.458,,left,1,0.97,,,,,,,,,,,,,,,,,,,,,,,,,,,,,,70.476,70.476,1,0,16,16,16,1,8.967257353,starcase2,1,,TRUE,,intensity,30,1,45,20,0.6,50,4.94066E-324,10,0.01,0.5,0.5
,,,,,ear_test,001,2023-09-21_15h40.40.811,orientation,2023.2.2,MacIntel,62.5,,,71.46,72.389,,left,1,0.917,,,,,,,,,,,,,,,,,,,,,,,,,,,,,,71.46,71.46,1,0,17,17,17,1,8.219948966,starcase2,1,,TRUE,,intensity,30,1,45,20,0.6,50,4.94066E-324,10,0.01,0.5,0.5
,,,,,ear_test,001,2023-09-21_15h40.40.811,orientation,2023.2.2,MacIntel,62.5,,,72.392,73.239,,right,1,0.834,,,,,,,,,,,,,,,,,,,,,,,,,,,,,,72.39,72.391,1,0,18,18,18,1,7.885812533,starcase2,1,,TRUE,,intensity,30,1,45,20,0.6,50,4.94066E-324,10,0.01,0.5,0.5
,,,,,ear_test,001,2023-09-21_15h40.40.811,orientation,2023.2.2,MacIntel,62.5,,,73.241,74.058,,left,1,0.802,,,,,,,,,,,,,,,,,,,,,,,,,,,,,,73.241,73.241,1,0,19,19,19,1,7.482549958,starcase2,1,,TRUE,,intensity,30,1,45,20,0.6,50,4.94066E-324,10,0.01,0.5,0.5
,,,,,ear_test,001,2023-09-21_15h40.40.811,orientation,2023.2.2,MacIntel,62.5,,,74.059,75.107,,right,1,1.035,,,,,,,,,,,,,,,,,,,,,,,,,,,,,,74.059,74.059,1,0,20,20,20,1,7.451256088,starcase2,1,,TRUE,,intensity,30,1,45,20,0.6,50,4.94066E-324,10,0.01,0.5,0.5
,,,,,ear_test,001,2023-09-21_15h40.40.811,orientation,2023.2.2,MacIntel,62.5,,,75.11,76.024,,right,1,0.902,,,,,,,,,,,,,,,,,,,,,,,,,,,,,,75.109,75.109,1,0,21,21,21,1,7.389090732,starcase2,1,,TRUE,,intensity,30,1,45,20,0.6,50,4.94066E-324,10,0.01,0.5,0.5
,,,,,ear_test,001,2023-09-21_15h40.40.811,orientation,2023.2.2,MacIntel,62.5,,,76.026,77.039,,left,1,1.001,,,,,,,,,,,,,,,,,,,,,,,,,,,,,,76.026,76.026,1,0,22,22,22,1,7.265515165,starcase2,1,,TRUE,,intensity,30,1,45,20,0.6,50,4.94066E-324,10,0.01,0.5,0.5
,,,,,ear_test,001,2023-09-21_15h40.40.811,orientation,2023.2.2,MacIntel,62.5,,,77.043,77.991,,right,1,0.933,,,,,,,,,,,,,,,,,,,,,,,,,,,,,,77.043,77.043,1,0,23,23,23,1,7.019781152,starcase2,1,,TRUE,,intensity,30,1,45,20,0.6,50,4.94066E-324,10,0.01,0.5,0.5
,,,,,ear_test,001,2023-09-21_15h40.40.811,orientation,2023.2.2,MacIntel,62.5,,,77.994,78.989,,left,1,0.985,,,,,,,,,,,,,,,,,,,,,,,,,,,,,,77.994,77.994,1,0,24,24,24,1,5.239578137,starcase2,1,,TRUE,,intensity,30,1,45,20,0.6,50,4.94066E-324,10,0.01,0.5,0.5
,,,,,ear_test,001,2023-09-21_15h40.40.811,orientation,2023.2.2,MacIntel,62.5,,,78.993,79.957,,right,1,0.952,,,,,,,,,,,,,,,,,,,,,,,,,,,,,,78.993,78.993,1,0,25,25,25,1,4.356223199,starcase2,1,,TRUE,,intensity,30,1,45,20,0.6,50,4.94066E-324,10,0.01,0.5,0.5
,,,,,ear_test,001,2023-09-21_15h40.40.811,orientation,2023.2.2,MacIntel,62.5,,,79.96,80.856,,left,0,0.885,,,,,,,,,,,,,,,,,,,,,,,,,,,,,,79.959,79.96,0,0,26,26,26,1,3.973728645,starcase2,1,,TRUE,,intensity,30,1,45,20,0.6,50,4.94066E-324,10,0.01,0.5,0.5
,,,,,ear_test,001,2023-09-21_15h40.40.811,orientation,2023.2.2,MacIntel,62.5,,,80.858,81.723,,right,1,0.851,,,,,,,,,,,,,,,,,,,,,,,,,,,,,,80.857,80.857,1,0,27,27,27,1,4.367966919,starcase2,1,,TRUE,,intensity,30,1,45,20,0.6,50,4.94066E-324,10,0.01,0.5,0.5
,,,,,ear_test,001,2023-09-21_15h40.40.811,orientation,2023.2.2,MacIntel,62.5,,,81.725,82.606,,right,0,0.868,,,,,,,,,,,,,,,,,,,,,,,,,,,,,,81.724,81.725,0,0,28,28,28,1,3.992934989,starcase2,1,,TRUE,,intensity,30,1,45,20,0.6,50,4.94066E-324,10,0.01,0.5,0.5
,,,,,ear_test,001,2023-09-21_15h40.40.811,orientation,2023.2.2,MacIntel,62.5,,,82.609,83.456,,left,0,0.835,,,,,,,,,,,,,,,,,,,,,,,,,,,,,,82.609,82.609,0,0,29,29,29,1,3.995186609,starcase2,1,,TRUE,,intensity,30,1,45,20,0.6,50,4.94066E-324,10,0.01,0.5,0.5
,,,,,ear_test,001,2023-09-21_15h40.40.811,orientation,2023.2.2,MacIntel,62.5,,,83.458,84.358,,right,1,0.884,,,,,,,,,,,,,,,,,,,,,,,,,,,,,,83.458,83.458,1,0,30,30,30,1,3.995286931,starcase2,1,,TRUE,,intensity,30,1,45,20,0.6,50,4.94066E-324,10,0.01,0.5,0.5
,,,,,ear_test,001,2023-09-21_15h40.40.811,orientation,2023.2.2,MacIntel,62.5,,,84.36,85.541,,right,1,1.167,,,,,,,,,,,,,,,,,,,,,,,,,,,,,,84.359,84.36,1,0,31,31,31,1,3.995208161,starcase2,1,,TRUE,,intensity,30,1,45,20,0.6,50,4.94066E-324,10,0.01,0.5,0.5
,,,,,ear_test,001,2023-09-21_15h40.40.811,orientation,2023.2.2,MacIntel,62.5,,,85.543,86.658,,left,1,1.101,,,,,,,,,,,,,,,,,,,,,,,,,,,,,,85.543,85.543,1,0,32,32,32,1,3.995129208,starcase2,1,,TRUE,,intensity,30,1,45,20,0.6,50,4.94066E-324,10,0.01,0.5,0.5
,,,,,ear_test,001,2023-09-21_15h40.40.811,orientation,2023.2.2,MacIntel,62.5,,,86.659,88.056,,left,1,1.383,,,,,,,,,,,,,,,,,,,,,,,,,,,,,,86.659,86.659,1,0,33,33,33,1,3.995049857,starcase2,1,,TRUE,,intensity,30,1,45,20,0.6,50,4.94066E-324,10,0.01,0.5,0.5
,,,,,ear_test,001,2023-09-21_15h40.40.811,orientation,2023.2.2,MacIntel,62.5,,,88.059,89.123,,left,1,1.05,,,,,,,,,,,,,,,,,,,,,,,,,,,,,,88.059,88.059,1,0,34,34,34,1,3.994969687,starcase2,1,,TRUE,,intensity,30,1,45,20,0.6,50,4.94066E-324,10,0.01,0.5,0.5
,,,,,ear_test,001,2023-09-21_15h40.40.811,orientation,2023.2.2,MacIntel,62.5,,,89.124,90.189,,left,1,1.051,,,,,,,,,,,,,,,,,,,,,,,,,,,,,,89.124,89.124,1,0,35,35,35,1,3.994887856,starcase2,1,,TRUE,,intensity,30,1,45,20,0.6,50,4.94066E-324,10,0.01,0.5,0.5
,,,,,ear_test,001,2023-09-21_15h40.40.811,orientation,2023.2.2,MacIntel,62.5,,,90.192,91.206,,left,1,0.999,,,,,,,,,,,,,,,,,,,,,,,,,,,,,,90.192,90.192,1,0,36,36,36,1,3.994802689,starcase2,1,,TRUE,,intensity,30,1,45,20,0.6,50,4.94066E-324,10,0.01,0.5,0.5
,,,,,ear_test,001,2023-09-21_15h40.40.811,orientation,2023.2.2,MacIntel,62.5,,,91.209,92.356,,left,1,1.138,,,,,,,,,,,,,,,,,,,,,,,,,,,,,,91.209,91.209,1,0,37,37,37,1,3.994710858,starcase2,1,,TRUE,,intensity,30,1,45,20,0.6,50,4.94066E-324,10,0.01,0.5,0.5
,,,,,ear_test,001,2023-09-21_15h40.40.811,orientation,2023.2.2,MacIntel,62.5,,,92.359,93.372,,left,1,1.001,,,,,,,,,,,,,,,,,,,,,,,,,,,,,,92.359,92.359,1,0,38,38,38,1,3.994605738,starcase2,1,,TRUE,,intensity,30,1,45,20,0.6,50,4.94066E-324,10,0.01,0.5,0.5
,,,,,ear_test,001,2023-09-21_15h40.40.811,orientation,2023.2.2,MacIntel,62.5,,,93.375,94.389,,right,1,1.002,,,,,,,,,,,,,,,,,,,,,,,,,,,,,,93.375,93.375,1,0,39,39,39,1,3.994474156,starcase2,1,,TRUE,,intensity,30,1,45,20,0.6,50,4.94066E-324,10,0.01,0.5,0.5
,,,,,ear_test,001,2023-09-21_15h40.40.811,orientation,2023.2.2,MacIntel,62.5,,,94.392,95.389,,left,1,0.985,,,,,,,,,,,,,,,,,,,,,,,,,,,,,,94.392,94.392,1,0,40,40,40,1,3.994289902,starcase2,1,,TRUE,,intensity,30,1,45,20,0.6,50,4.94066E-324,10,0.01,0.5,0.5
,,,,,ear_test,001,2023-09-21_15h40.40.811,orientation,2023.2.2,MacIntel,62.5,,,95.392,96.573,,left,1,1.168,,,,,,,,,,,,,,,,,,,,,,,,,,,,,,95.391,95.391,1,0,41,41,41,1,3.994000842,starcase2,1,,TRUE,,intensity,30,1,45,20,0.6,50,4.94066E-324,10,0.01,0.5,0.5
,,,,,ear_test,001,2023-09-21_15h40.40.811,orientation,2023.2.2,MacIntel,62.5,,,96.574,97.539,,right,1,0.95,,,,,,,,,,,,,,,,,,,,,,,,,,,,,,96.573,96.573,1,0,42,42,42,1,3.993503271,starcase2,1,,TRUE,,intensity,30,1,45,20,0.6,50,4.94066E-324,10,0.01,0.5,0.5
,,,,,ear_test,001,2023-09-21_15h40.40.811,orientation,2023.2.2,MacIntel,62.5,,,97.54,98.507,,right,1,0.95,,,,,,,,,,,,,,,,,,,,,,,,,,,,,,97.54,97.54,1,0,43,43,43,1,3.992590894,starcase2,1,,TRUE,,intensity,30,1,45,20,0.6,50,4.94066E-324,10,0.01,0.5,0.5
,,,,,ear_test,001,2023-09-21_15h40.40.811,orientation,2023.2.2,MacIntel,62.5,,,98.509,99.455,,right,1,0.934,,,,,,,,,,,,,,,,,,,,,,,,,,,,,,98.509,98.509,1,0,44,44,44,1,3.990853347,starcase2,1,,TRUE,,intensity,30,1,45,20,0.6,50,4.94066E-324,10,0.01,0.5,0.5
,,,,,ear_test,001,2023-09-21_15h40.40.811,orientation,2023.2.2,MacIntel,62.5,,,99.459,100.641,,right,0,1.167,,,,,,,,,,,,,,,,,,,,,,,,,,,,,,99.458,99.458,0,0,45,45,45,1,3.987474324,starcase2,1,,TRUE,,intensity,30,1,45,20,0.6,50,4.94066E-324,10,0.01,0.5,0.5
,,,,,ear_test,001,2023-09-21_15h40.40.811,orientation,2023.2.2,MacIntel,62.5,,,100.644,102.039,,left,1,1.383,,,,,,,,,,,,,,,,,,,,,,,,,,,,,,100.644,100.644,1,0,46,46,46,1,3.994123846,starcase2,1,,TRUE,,intensity,30,1,45,20,0.6,50,4.94066E-324,10,0.01,0.5,0.5
,,,,,ear_test,001,2023-09-21_15h40.40.811,orientation,2023.2.2,MacIntel,62.5,,,102.042,102.941,,right,0,0.879,,,,,,,,,,,,,,,,,,,,,,,,,,,,,,102.041,102.041,0,0,47,47,47,1,3.993980036,starcase2,1,,TRUE,,intensity,30,1,45,20,0.6,50,4.94066E-324,10,0.01,0.5,0.5
,,,,,ear_test,001,2023-09-21_15h40.40.811,orientation,2023.2.2,MacIntel,62.5,,,102.943,103.94,,right,1,0.983,,,,,,,,,,,,,,,,,,,,,,,,,,,,,,102.943,102.943,1,0,48,48,48,1,3.994188959,starcase2,1,,TRUE,,intensity,30,1,45,20,0.6,50,4.94066E-324,10,0.01,0.5,0.5
,,,,,ear_test,001,2023-09-21_15h40.40.811,orientation,2023.2.2,MacIntel,62.5,,,103.94,104.889,,right,1,0.933,,,,,,,,,,,,,,,,,,,,,,,,,,,,,,103.94,103.94,1,0,49,49,49,1,3.99410953,starcase2,1,,TRUE,,intensity,30,1,45,20,0.6,50,4.94066E-324,10,0.01,0.5,0.5