Trigger.started,Trigger.stopped,key_resp_4.keys,mouse.x,mouse.y,mouse.leftButton,mouse.midButton,mouse.rightButton,Session,Subject,date,expName,psychopyVersion,OS,frameRate,complex_block.started,complex_block.stopped,key_resp.keys,key_resp.corr,key_resp.rt,key_resp.duration,complex_block_loop.thisRepN,complex_block_loop.thisTrialN,complex_block_loop.thisN,complex_block_loop.thisIndex,complex_block_loop.ran,trial,finger,markerPos,correctResp,new_block_loop.thisRepN,new_block_loop.thisTrialN,new_block_loop.thisN,new_block_loop.thisIndex,new_block_loop.ran,endBuffer.started,endBuffer.stopped
0.0002,114.1099,,0.241731635,-0.147168783,1,0,0,1,alphastar,2024-09-24_15h32.19.988,Motor_Task,2023.2.2,MacIntel,58.13953488,,,,,,,,,,,,,,,,,,,,,,
,,,,,,,,1,alphastar,2024-09-24_15h32.19.988,Motor_Task,2023.2.2,MacIntel,58.13953488,114.2111,115.7493,2,1,1.5281,,0,0,0,0,1,1,M,,2,,,,,,,
,,,,,,,,1,alphastar,2024-09-24_15h32.19.988,Motor_Task,2023.2.2,MacIntel,58.13953488,115.7496,116.5274,3,1,0.7725,,0,1,1,1,1,2,R,,3,,,,,,,
,,,,,,,,1,alphastar,2024-09-24_15h32.19.988,Motor_Task,2023.2.2,MacIntel,58.13953488,116.5277,117.1778,2,1,0.6496,,0,2,2,2,1,3,M,,2,,,,,,,
,,,,,,,,1,alphastar,2024-09-24_15h32.19.988,Motor_Task,2023.2.2,MacIntel,58.13953488,117.1782,117.7605,3,1,0.5815,,0,3,3,3,1,4,R,,3,,,,,,,
,,,,,,,,1,alphastar,2024-09-24_15h32.19.988,Motor_Task,2023.2.2,MacIntel,58.13953488,117.7607,118.4772,1,1,0.7077,,0,4,4,4,1,5,I,,1,,,,,,,
,,,,,,,,1,alphastar,2024-09-24_15h32.19.988,Motor_Task,2023.2.2,MacIntel,58.13953488,118.4775,119.1107,1,1,0.6319,,0,5,5,5,1,6,I,,1,,,,,,,
,,,,,,,,1,alphastar,2024-09-24_15h32.19.988,Motor_Task,2023.2.2,MacIntel,58.13953488,119.111,119.7779,3,1,0.665,,0,6,6,6,1,7,R,,3,,,,,,,
,,,,,,,,1,alphastar,2024-09-24_15h32.19.988,Motor_Task,2023.2.2,MacIntel,58.13953488,119.7782,120.3448,2,1,0.5587,,0,7,7,7,1,8,M,,2,,,,,,,
,,,,,,,,1,alphastar,2024-09-24_15h32.19.988,Motor_Task,2023.2.2,MacIntel,58.13953488,120.3451,120.9773,4,1,0.6305,,0,8,8,8,1,9,L,,4,,,,,,,
,,,,,,,,1,alphastar,2024-09-24_15h32.19.988,Motor_Task,2023.2.2,MacIntel,58.13953488,120.9775,121.5942,1,1,0.6093,,0,9,9,9,1,10,I,,1,,,,,,,
,,,,,,,,1,alphastar,2024-09-24_15h32.19.988,Motor_Task,2023.2.2,MacIntel,58.13953488,121.5944,122.211,2,1,0.6101,,1,0,10,0,1,1,M,,2,,,,,,,
,,,,,,,,1,alphastar,2024-09-24_15h32.19.988,Motor_Task,2023.2.2,MacIntel,58.13953488,122.2112,122.8439,3,1,0.6307,,1,1,11,1,1,2,R,,3,,,,,,,
,,,,,,,,1,alphastar,2024-09-24_15h32.19.988,Motor_Task,2023.2.2,MacIntel,58.13953488,122.8441,123.5606,2,1,0.7094,,1,2,12,2,1,3,M,,2,,,,,,,
,,,,,,,,1,alphastar,2024-09-24_15h32.19.988,Motor_Task,2023.2.2,MacIntel,58.13953488,123.5609,124.1946,3,1,0.6258,,1,3,13,3,1,4,R,,3,,,,,,,
,,,,,,,,1,alphastar,2024-09-24_15h32.19.988,Motor_Task,2023.2.2,MacIntel,58.13953488,124.1948,124.7445,1,1,0.5447,,1,4,14,4,1,5,I,,1,,,,,,,
,,,,,,,,1,alphastar,2024-09-24_15h32.19.988,Motor_Task,2023.2.2,MacIntel,58.13953488,124.7448,125.3608,1,1,0.6052,,1,5,15,5,1,6,I,,1,,,,,,,
,,,,,,,,1,alphastar,2024-09-24_15h32.19.988,Motor_Task,2023.2.2,MacIntel,58.13953488,125.3611,125.9606,3,1,0.59,,1,6,16,6,1,7,R,,3,,,,,,,
,,,,,,,,1,alphastar,2024-09-24_15h32.19.988,Motor_Task,2023.2.2,MacIntel,58.13953488,125.9608,126.4941,2,1,0.531,,1,7,17,7,1,8,M,,2,,,,,,,
,,,,,,,,1,alphastar,2024-09-24_15h32.19.988,Motor_Task,2023.2.2,MacIntel,58.13953488,126.4943,127.2273,4,1,0.722,,1,8,18,8,1,9,L,,4,,,,,,,
,,,,,,,,1,alphastar,2024-09-24_15h32.19.988,Motor_Task,2023.2.2,MacIntel,58.13953488,127.2276,127.8447,1,1,0.6147,,1,9,19,9,1,10,I,,1,,,,,,,
,,,,,,,,1,alphastar,2024-09-24_15h32.19.988,Motor_Task,2023.2.2,MacIntel,58.13953488,127.845,128.3612,2,1,0.5127,,2,0,20,0,1,1,M,,2,,,,,,,
,,,,,,,,1,alphastar,2024-09-24_15h32.19.988,Motor_Task,2023.2.2,MacIntel,58.13953488,128.3614,128.9606,3,1,0.5987,,2,1,21,1,1,2,R,,3,,,,,,,
,,,,,,,,1,alphastar,2024-09-24_15h32.19.988,Motor_Task,2023.2.2,MacIntel,58.13953488,128.961,129.9271,2,1,0.9648,,2,2,22,2,1,3,M,,2,,,,,,,
,,,,,,,,1,alphastar,2024-09-24_15h32.19.988,Motor_Task,2023.2.2,MacIntel,58.13953488,129.9274,130.5605,3,1,0.6311,,2,3,23,3,1,4,R,,3,,,,,,,
,,,,,,,,1,alphastar,2024-09-24_15h32.19.988,Motor_Task,2023.2.2,MacIntel,58.13953488,130.5607,131.2273,1,1,0.6556,,2,4,24,4,1,5,I,,1,,,,,,,
,,,,,,,,1,alphastar,2024-09-24_15h32.19.988,Motor_Task,2023.2.2,MacIntel,58.13953488,131.2276,131.8437,1,1,0.6153,,2,5,25,5,1,6,I,,1,,,,,,,
,,,,,,,,1,alphastar,2024-09-24_15h32.19.988,Motor_Task,2023.2.2,MacIntel,58.13953488,131.8439,132.5115,3,1,0.661,,2,6,26,6,1,7,R,,3,,,,,,,
,,,,,,,,1,alphastar,2024-09-24_15h32.19.988,Motor_Task,2023.2.2,MacIntel,58.13953488,132.5118,133.0281,2,1,0.515,,2,7,27,7,1,8,M,,2,,,,,,,
,,,,,,,,1,alphastar,2024-09-24_15h32.19.988,Motor_Task,2023.2.2,MacIntel,58.13953488,133.0284,133.5943,4,1,0.5635,,2,8,28,8,1,9,L,,4,,,,,,,
,,,,,,,,1,alphastar,2024-09-24_15h32.19.988,Motor_Task,2023.2.2,MacIntel,58.13953488,133.5945,134.1773,1,1,0.5774,,2,9,29,9,1,10,I,,1,,,,,,,
,,,,,,,,1,alphastar,2024-09-24_15h32.19.988,Motor_Task,2023.2.2,MacIntel,58.13953488,134.1776,134.7447,2,1,0.565,,3,0,30,0,1,1,M,,2,,,,,,,
,,,,,,,,1,alphastar,2024-09-24_15h32.19.988,Motor_Task,2023.2.2,MacIntel,58.13953488,134.745,135.2772,3,1,0.531,,3,1,31,1,1,2,R,,3,,,,,,,
,,,,,,,,1,alphastar,2024-09-24_15h32.19.988,Motor_Task,2023.2.2,MacIntel,58.13953488,135.2774,135.9106,2,1,0.6326,,3,2,32,2,1,3,M,,2,,,,,,,
,,,,,,,,1,alphastar,2024-09-24_15h32.19.988,Motor_Task,2023.2.2,MacIntel,58.13953488,135.911,136.4273,3,1,0.5152,,3,3,33,3,1,4,R,,3,,,,,,,
,,,,,,,,1,alphastar,2024-09-24_15h32.19.988,Motor_Task,2023.2.2,MacIntel,58.13953488,136.4277,136.961,1,1,0.533,,3,4,34,4,1,5,I,,1,,,,,,,
,,,,,,,,1,alphastar,2024-09-24_15h32.19.988,Motor_Task,2023.2.2,MacIntel,58.13953488,136.9613,137.6112,1,1,0.6471,,3,5,35,5,1,6,I,,1,,,,,,,
,,,,,,,,1,alphastar,2024-09-24_15h32.19.988,Motor_Task,2023.2.2,MacIntel,58.13953488,137.6113,138.3938,3,1,0.7796,,3,6,36,6,1,7,R,,3,,,,,,,
,,,,,,,,1,alphastar,2024-09-24_15h32.19.988,Motor_Task,2023.2.2,MacIntel,58.13953488,138.3941,139.0105,2,1,0.6162,,3,7,37,7,1,8,M,,2,,,,,,,
,,,,,,,,1,alphastar,2024-09-24_15h32.19.988,Motor_Task,2023.2.2,MacIntel,58.13953488,139.0107,139.6111,4,1,0.5942,,3,8,38,8,1,9,L,,4,,,,,,,
,,,,,,,,1,alphastar,2024-09-24_15h32.19.988,Motor_Task,2023.2.2,MacIntel,58.13953488,139.6113,140.3109,1,1,0.6973,,3,9,39,9,1,10,I,,1,,,,,,,
,,,,,,,,1,alphastar,2024-09-24_15h32.19.988,Motor_Task,2023.2.2,MacIntel,58.13953488,140.3112,140.977,2,1,0.6653,,4,0,40,0,1,1,M,,2,,,,,,,
,,,,,,,,1,alphastar,2024-09-24_15h32.19.988,Motor_Task,2023.2.2,MacIntel,58.13953488,140.9772,141.5937,3,1,0.615,,4,1,41,1,1,2,R,,3,,,,,,,
,,,,,,,,1,alphastar,2024-09-24_15h32.19.988,Motor_Task,2023.2.2,MacIntel,58.13953488,141.5939,142.1939,1,0,0.5985,,4,2,42,2,1,3,M,,2,,,,,,,
,,,,,,,,1,alphastar,2024-09-24_15h32.19.988,Motor_Task,2023.2.2,MacIntel,58.13953488,142.1941,143.2771,3,1,1.0819,,4,3,43,3,1,4,R,,3,,,,,,,
,,,,,,,,1,alphastar,2024-09-24_15h32.19.988,Motor_Task,2023.2.2,MacIntel,58.13953488,143.2776,144.0437,1,1,0.7656,,4,4,44,4,1,5,I,,1,,,,,,,
,,,,,,,,1,alphastar,2024-09-24_15h32.19.988,Motor_Task,2023.2.2,MacIntel,58.13953488,144.0439,144.6942,1,1,0.6484,,4,5,45,5,1,6,I,,1,,,,,,,
,,,,,,,,1,alphastar,2024-09-24_15h32.19.988,Motor_Task,2023.2.2,MacIntel,58.13953488,144.6944,145.4275,3,1,0.7323,,4,6,46,6,1,7,R,,3,,,,,,,
,,,,,,,,1,alphastar,2024-09-24_15h32.19.988,Motor_Task,2023.2.2,MacIntel,58.13953488,145.4278,145.9279,2,1,0.4979,,4,7,47,7,1,8,M,,2,,,,,,,
,,,,,,,,1,alphastar,2024-09-24_15h32.19.988,Motor_Task,2023.2.2,MacIntel,58.13953488,145.9282,146.6441,4,1,0.714,,4,8,48,8,1,9,L,,4,,,,,,,
,,,,,,,,1,alphastar,2024-09-24_15h32.19.988,Motor_Task,2023.2.2,MacIntel,58.13953488,146.6444,147.2613,1,1,0.6146,,4,9,49,9,1,10,I,,1,,,,,,,
,,,,,,,,1,alphastar,2024-09-24_15h32.19.988,Motor_Task,2023.2.2,MacIntel,58.13953488,147.2617,147.844,2,1,0.5812,,5,0,50,0,1,1,M,,2,,,,,,,
,,,,,,,,1,alphastar,2024-09-24_15h32.19.988,Motor_Task,2023.2.2,MacIntel,58.13953488,147.8443,148.5272,3,1,0.6818,,5,1,51,1,1,2,R,,3,,,,,,,
,,,,,,,,1,alphastar,2024-09-24_15h32.19.988,Motor_Task,2023.2.2,MacIntel,58.13953488,148.5277,149.2773,2,1,0.7492,,5,2,52,2,1,3,M,,2,,,,,,,
,,,,,,,,1,alphastar,2024-09-24_15h32.19.988,Motor_Task,2023.2.2,MacIntel,58.13953488,149.2775,149.8601,3,1,0.5819,,5,3,53,3,1,4,R,,3,,,,,,,
,,,,,,,,1,alphastar,2024-09-24_15h32.19.988,Motor_Task,2023.2.2,MacIntel,58.13953488,149.8603,150.444,1,1,0.581,,5,4,54,4,1,5,I,,1,,,,,,,
,,,,,,,,1,alphastar,2024-09-24_15h32.19.988,Motor_Task,2023.2.2,MacIntel,58.13953488,150.4442,151.0267,1,1,0.5748,,5,5,55,5,1,6,I,,1,,,,,,,
,,,,,,,,1,alphastar,2024-09-24_15h32.19.988,Motor_Task,2023.2.2,MacIntel,58.13953488,151.0268,151.86,3,1,0.8275,,5,6,56,6,1,7,R,,3,,,,,,,
,,,,,,,,1,alphastar,2024-09-24_15h32.19.988,Motor_Task,2023.2.2,MacIntel,58.13953488,151.8603,152.3435,2,1,0.482,,5,7,57,7,1,8,M,,2,,,,,,,
,,,,,,,,1,alphastar,2024-09-24_15h32.19.988,Motor_Task,2023.2.2,MacIntel,58.13953488,152.3438,152.9942,4,1,0.6484,,5,8,58,8,1,9,L,,4,,,,,,,
,,,,,,,,1,alphastar,2024-09-24_15h32.19.988,Motor_Task,2023.2.2,MacIntel,58.13953488,152.9944,153.6102,1,1,0.609,,5,9,59,9,1,10,I,,1,,,,,,,
,,,,,,,,1,alphastar,2024-09-24_15h32.19.988,Motor_Task,2023.2.2,MacIntel,58.13953488,153.6104,154.2435,2,1,0.6321,,6,0,60,0,1,1,M,,2,,,,,,,
,,,,,,,,1,alphastar,2024-09-24_15h32.19.988,Motor_Task,2023.2.2,MacIntel,58.13953488,154.2438,154.7606,3,1,0.5159,,6,1,61,1,1,2,R,,3,,,,,,,
,,,,,,,,1,alphastar,2024-09-24_15h32.19.988,Motor_Task,2023.2.2,MacIntel,58.13953488,154.7609,155.2611,2,1,0.4982,,6,2,62,2,1,3,M,,2,,,,,,,
,,,,,,,,1,alphastar,2024-09-24_15h32.19.988,Motor_Task,2023.2.2,MacIntel,58.13953488,155.2614,155.9771,3,1,0.7151,,6,3,63,3,1,4,R,,3,,,,,,,
,,,,,,,,1,alphastar,2024-09-24_15h32.19.988,Motor_Task,2023.2.2,MacIntel,58.13953488,155.9777,156.6102,1,1,0.6313,,6,4,64,4,1,5,I,,1,,,,,,,
,,,,,,,,1,alphastar,2024-09-24_15h32.19.988,Motor_Task,2023.2.2,MacIntel,58.13953488,156.6107,157.1268,1,1,0.5159,,6,5,65,5,1,6,I,,1,,,,,,,
,,,,,,,,1,alphastar,2024-09-24_15h32.19.988,Motor_Task,2023.2.2,MacIntel,58.13953488,157.127,157.828,3,1,0.691,,6,6,66,6,1,7,R,,3,,,,,,,
,,,,,,,,1,alphastar,2024-09-24_15h32.19.988,Motor_Task,2023.2.2,MacIntel,58.13953488,157.8285,158.3275,2,1,0.4981,,6,7,67,7,1,8,M,,2,,,,,,,
,,,,,,,,1,alphastar,2024-09-24_15h32.19.988,Motor_Task,2023.2.2,MacIntel,58.13953488,158.3279,158.8607,4,1,0.5309,,6,8,68,8,1,9,L,,4,,,,,,,
,,,,,,,,1,alphastar,2024-09-24_15h32.19.988,Motor_Task,2023.2.2,MacIntel,58.13953488,158.861,159.3769,1,1,0.5145,,6,9,69,9,1,10,I,,1,,,,,,,
,,,,,,,,1,alphastar,2024-09-24_15h32.19.988,Motor_Task,2023.2.2,MacIntel,58.13953488,159.3773,159.8767,2,1,0.4956,,7,0,70,0,1,1,M,,2,,,,,,,
,,,,,,,,1,alphastar,2024-09-24_15h32.19.988,Motor_Task,2023.2.2,MacIntel,58.13953488,159.877,160.3605,3,1,0.4823,,7,1,71,1,1,2,R,,3,,,,,,,
,,,,,,,,1,alphastar,2024-09-24_15h32.19.988,Motor_Task,2023.2.2,MacIntel,58.13953488,160.3609,160.9437,2,1,0.5811,,7,2,72,2,1,3,M,,2,,,,,,,
,,,,,,,,1,alphastar,2024-09-24_15h32.19.988,Motor_Task,2023.2.2,MacIntel,58.13953488,160.9439,161.5776,3,1,0.6319,,7,3,73,3,1,4,R,,3,,,,,,,
,,,,,,,,1,alphastar,2024-09-24_15h32.19.988,Motor_Task,2023.2.2,MacIntel,58.13953488,161.5778,162.0603,1,1,0.4817,,7,4,74,4,1,5,I,,1,,,,,,,
,,,,,,,,1,alphastar,2024-09-24_15h32.19.988,Motor_Task,2023.2.2,MacIntel,58.13953488,162.0608,162.6444,1,1,0.5824,,7,5,75,5,1,6,I,,1,,,,,,,
,,,,,,,,1,alphastar,2024-09-24_15h32.19.988,Motor_Task,2023.2.2,MacIntel,58.13953488,162.6447,163.3438,3,1,0.6976,,7,6,76,6,1,7,R,,3,,,,,,,
,,,,,,,,1,alphastar,2024-09-24_15h32.19.988,Motor_Task,2023.2.2,MacIntel,58.13953488,163.3441,163.8433,2,1,0.4983,,7,7,77,7,1,8,M,,2,,,,,,,
,,,,,,,,1,alphastar,2024-09-24_15h32.19.988,Motor_Task,2023.2.2,MacIntel,58.13953488,163.8435,164.3439,4,1,0.4997,,7,8,78,8,1,9,L,,4,,,,,,,
,,,,,,,,1,alphastar,2024-09-24_15h32.19.988,Motor_Task,2023.2.2,MacIntel,58.13953488,164.3443,165.0276,1,1,0.6776,,7,9,79,9,1,10,I,,1,,,,,,,
,,,,,,,,1,alphastar,2024-09-24_15h32.19.988,Motor_Task,2023.2.2,MacIntel,58.13953488,165.0279,165.6106,2,1,0.5794,,8,0,80,0,1,1,M,,2,,,,,,,
,,,,,,,,1,alphastar,2024-09-24_15h32.19.988,Motor_Task,2023.2.2,MacIntel,58.13953488,165.6108,166.1271,3,1,0.5144,,8,1,81,1,1,2,R,,3,,,,,,,
,,,,,,,,1,alphastar,2024-09-24_15h32.19.988,Motor_Task,2023.2.2,MacIntel,58.13953488,166.1274,166.8098,2,1,0.6767,,8,2,82,2,1,3,M,,2,,,,,,,
,,,,,,,,1,alphastar,2024-09-24_15h32.19.988,Motor_Task,2023.2.2,MacIntel,58.13953488,166.81,167.5105,3,1,0.692,,8,3,83,3,1,4,R,,3,,,,,,,
,,,,,,,,1,alphastar,2024-09-24_15h32.19.988,Motor_Task,2023.2.2,MacIntel,58.13953488,167.5109,167.9933,1,1,0.482,,8,4,84,4,1,5,I,,1,,,,,,,
,,,,,,,,1,alphastar,2024-09-24_15h32.19.988,Motor_Task,2023.2.2,MacIntel,58.13953488,167.9935,168.4439,1,1,0.4491,,8,5,85,5,1,6,I,,1,,,,,,,
,,,,,,,,1,alphastar,2024-09-24_15h32.19.988,Motor_Task,2023.2.2,MacIntel,58.13953488,168.4443,168.9097,3,1,0.4639,,8,6,86,6,1,7,R,,3,,,,,,,
,,,,,,,,1,alphastar,2024-09-24_15h32.19.988,Motor_Task,2023.2.2,MacIntel,58.13953488,168.9099,169.4099,2,1,0.4984,,8,7,87,7,1,8,M,,2,,,,,,,
,,,,,,,,1,alphastar,2024-09-24_15h32.19.988,Motor_Task,2023.2.2,MacIntel,58.13953488,169.4101,169.9607,4,1,0.5415,,8,8,88,8,1,9,L,,4,,,,,,,
,,,,,,,,1,alphastar,2024-09-24_15h32.19.988,Motor_Task,2023.2.2,MacIntel,58.13953488,169.9608,170.5437,1,1,0.5814,,8,9,89,9,1,10,I,,1,,,,,,,
,,,,,,,,1,alphastar,2024-09-24_15h32.19.988,Motor_Task,2023.2.2,MacIntel,58.13953488,170.5439,171.1766,2,1,0.6281,,9,0,90,0,1,1,M,,2,,,,,,,
,,,,,,,,1,alphastar,2024-09-24_15h32.19.988,Motor_Task,2023.2.2,MacIntel,58.13953488,171.1769,171.7269,3,1,0.549,,9,1,91,1,1,2,R,,3,,,,,,,
,,,,,,,,1,alphastar,2024-09-24_15h32.19.988,Motor_Task,2023.2.2,MacIntel,58.13953488,171.7273,172.3437,2,1,0.6145,,9,2,92,2,1,3,M,,2,,,,,,,
,,,,,,,,1,alphastar,2024-09-24_15h32.19.988,Motor_Task,2023.2.2,MacIntel,58.13953488,172.344,172.9268,3,1,0.5824,,9,3,93,3,1,4,R,,3,,,,,,,
,,,,,,,,1,alphastar,2024-09-24_15h32.19.988,Motor_Task,2023.2.2,MacIntel,58.13953488,172.927,173.4777,1,1,0.5405,,9,4,94,4,1,5,I,,1,,,,,,,
,,,,,,,,1,alphastar,2024-09-24_15h32.19.988,Motor_Task,2023.2.2,MacIntel,58.13953488,173.4782,173.9774,1,1,0.4952,,9,5,95,5,1,6,I,,1,,,,,,,
,,,,,,,,1,alphastar,2024-09-24_15h32.19.988,Motor_Task,2023.2.2,MacIntel,58.13953488,173.9777,174.5435,3,1,0.5653,,9,6,96,6,1,7,R,,3,,,,,,,
,,,,,,,,1,alphastar,2024-09-24_15h32.19.988,Motor_Task,2023.2.2,MacIntel,58.13953488,174.5438,174.9101,2,1,0.3643,,9,7,97,7,1,8,M,,2,,,,,,,
,,,,,,,,1,alphastar,2024-09-24_15h32.19.988,Motor_Task,2023.2.2,MacIntel,58.13953488,174.9105,175.5437,4,1,0.6328,,9,8,98,8,1,9,L,,4,,,,,,,
,,,,,,,,1,alphastar,2024-09-24_15h32.19.988,Motor_Task,2023.2.2,MacIntel,58.13953488,175.544,176.1939,1,1,0.6489,,9,9,99,9,1,10,I,,1,,,,,,,
,,,,,,,,1,alphastar,2024-09-24_15h32.19.988,Motor_Task,2023.2.2,MacIntel,58.13953488,176.1942,176.7609,2,1,0.5603,,10,0,100,0,1,1,M,,2,,,,,,,
,,,,,,,,1,alphastar,2024-09-24_15h32.19.988,Motor_Task,2023.2.2,MacIntel,58.13953488,176.7613,177.3607,3,1,0.5972,,10,1,101,1,1,2,R,,3,,,,,,,
,,,,,,,,1,alphastar,2024-09-24_15h32.19.988,Motor_Task,2023.2.2,MacIntel,58.13953488,177.3611,177.993,2,1,0.6312,,10,2,102,2,1,3,M,,2,,,,,,,
,,,,,,,,1,alphastar,2024-09-24_15h32.19.988,Motor_Task,2023.2.2,MacIntel,58.13953488,177.9933,178.4931,3,1,0.493,,10,3,103,3,1,4,R,,3,,,,,,,
,,,,,,,,1,alphastar,2024-09-24_15h32.19.988,Motor_Task,2023.2.2,MacIntel,58.13953488,178.4933,179.0103,1,1,0.5154,,10,4,104,4,1,5,I,,1,,,,,,,
,,,,,,,,1,alphastar,2024-09-24_15h32.19.988,Motor_Task,2023.2.2,MacIntel,58.13953488,179.0106,179.3764,1,1,0.3599,,10,5,105,5,1,6,I,,1,,,,,,,
,,,,,,,,1,alphastar,2024-09-24_15h32.19.988,Motor_Task,2023.2.2,MacIntel,58.13953488,179.3765,180.2271,3,1,0.8479,,10,6,106,6,1,7,R,,3,,,,,,,
,,,,,,,,1,alphastar,2024-09-24_15h32.19.988,Motor_Task,2023.2.2,MacIntel,58.13953488,180.2273,180.7274,2,1,0.4981,,10,7,107,7,1,8,M,,2,,,,,,,
,,,,,,,,1,alphastar,2024-09-24_15h32.19.988,Motor_Task,2023.2.2,MacIntel,58.13953488,180.7276,181.2432,4,1,0.5144,,10,8,108,8,1,9,L,,4,,,,,,,
,,,,,,,,1,alphastar,2024-09-24_15h32.19.988,Motor_Task,2023.2.2,MacIntel,58.13953488,181.2435,181.9434,1,1,0.689,,10,9,109,9,1,10,I,,1,,,,,,,
,,,,,,,,1,alphastar,2024-09-24_15h32.19.988,Motor_Task,2023.2.2,MacIntel,58.13953488,181.9435,182.5602,2,1,0.614,,11,0,110,0,1,1,M,,2,,,,,,,
,,,,,,,,1,alphastar,2024-09-24_15h32.19.988,Motor_Task,2023.2.2,MacIntel,58.13953488,182.5606,183.4767,3,1,0.9152,,11,1,111,1,1,2,R,,3,,,,,,,
,,,,,,,,1,alphastar,2024-09-24_15h32.19.988,Motor_Task,2023.2.2,MacIntel,58.13953488,183.4772,183.9599,2,1,0.4816,,11,2,112,2,1,3,M,,2,,,,,,,
,,,,,,,,1,alphastar,2024-09-24_15h32.19.988,Motor_Task,2023.2.2,MacIntel,58.13953488,183.9602,184.5263,3,1,0.5656,,11,3,113,3,1,4,R,,3,,,,,,,
,,,,,,,,1,alphastar,2024-09-24_15h32.19.988,Motor_Task,2023.2.2,MacIntel,58.13953488,184.5266,185.0272,1,1,0.4959,,11,4,114,4,1,5,I,,1,,,,,,,
,,,,,,,,1,alphastar,2024-09-24_15h32.19.988,Motor_Task,2023.2.2,MacIntel,58.13953488,185.0276,186.3433,1,1,1.3144,,11,5,115,5,1,6,I,,1,,,,,,,
,,,,,,,,1,alphastar,2024-09-24_15h32.19.988,Motor_Task,2023.2.2,MacIntel,58.13953488,186.3435,186.9937,3,1,0.6483,,11,6,116,6,1,7,R,,3,,,,,,,
,,,,,,,,1,alphastar,2024-09-24_15h32.19.988,Motor_Task,2023.2.2,MacIntel,58.13953488,186.9939,187.6263,2,1,0.6318,,11,7,117,7,1,8,M,,2,,,,,,,
,,,,,,,,1,alphastar,2024-09-24_15h32.19.988,Motor_Task,2023.2.2,MacIntel,58.13953488,187.6266,188.1604,4,1,0.5333,,11,8,118,8,1,9,L,,4,,,,,,,
,,,,,,,,1,alphastar,2024-09-24_15h32.19.988,Motor_Task,2023.2.2,MacIntel,58.13953488,188.1609,188.7762,1,1,0.6118,,11,9,119,9,1,10,I,,1,,,,,,,
,,,,,,,,1,alphastar,2024-09-24_15h32.19.988,Motor_Task,2023.2.2,MacIntel,58.13953488,188.7764,189.4106,2,1,0.6318,,12,0,120,0,1,1,M,,2,,,,,,,
,,,,,,,,1,alphastar,2024-09-24_15h32.19.988,Motor_Task,2023.2.2,MacIntel,58.13953488,189.4109,190.0101,3,1,0.5982,,12,1,121,1,1,2,R,,3,,,,,,,
,,,,,,,,1,alphastar,2024-09-24_15h32.19.988,Motor_Task,2023.2.2,MacIntel,58.13953488,190.0105,190.4931,2,1,0.475,,12,2,122,2,1,3,M,,2,,,,,,,
,,,,,,,,1,alphastar,2024-09-24_15h32.19.988,Motor_Task,2023.2.2,MacIntel,58.13953488,190.4933,191.4605,3,1,0.9651,,12,3,123,3,1,4,R,,3,,,,,,,
,,,,,,,,1,alphastar,2024-09-24_15h32.19.988,Motor_Task,2023.2.2,MacIntel,58.13953488,191.4608,192.1936,1,1,0.7316,,12,4,124,4,1,5,I,,1,,,,,,,
,,,,,,,,1,alphastar,2024-09-24_15h32.19.988,Motor_Task,2023.2.2,MacIntel,58.13953488,192.1941,192.9262,1,1,0.7207,,12,5,125,5,1,6,I,,1,,,,,,,
,,,,,,,,1,alphastar,2024-09-24_15h32.19.988,Motor_Task,2023.2.2,MacIntel,58.13953488,192.9264,193.5762,3,1,0.6492,,12,6,126,6,1,7,R,,3,,,,,,,
,,,,,,,,1,alphastar,2024-09-24_15h32.19.988,Motor_Task,2023.2.2,MacIntel,58.13953488,193.5764,194.0429,2,1,0.4662,,12,7,127,7,1,8,M,,2,,,,,,,
,,,,,,,,1,alphastar,2024-09-24_15h32.19.988,Motor_Task,2023.2.2,MacIntel,58.13953488,194.0432,194.5763,4,1,0.5313,,12,8,128,8,1,9,L,,4,,,,,,,
,,,,,,,,1,alphastar,2024-09-24_15h32.19.988,Motor_Task,2023.2.2,MacIntel,58.13953488,194.5765,195.2765,1,1,0.6997,,12,9,129,9,1,10,I,,1,,,,,,,
,,,,,,,,1,alphastar,2024-09-24_15h32.19.988,Motor_Task,2023.2.2,MacIntel,58.13953488,195.2768,195.7594,2,1,0.4803,,13,0,130,0,1,1,M,,2,,,,,,,
,,,,,,,,1,alphastar,2024-09-24_15h32.19.988,Motor_Task,2023.2.2,MacIntel,58.13953488,195.7596,196.3594,3,1,0.5929,,13,1,131,1,1,2,R,,3,,,,,,,
,,,,,,,,1,alphastar,2024-09-24_15h32.19.988,Motor_Task,2023.2.2,MacIntel,58.13953488,196.3596,197.1765,2,1,0.8141,,13,2,132,2,1,3,M,,2,,,,,,,
,,,,,,,,1,alphastar,2024-09-24_15h32.19.988,Motor_Task,2023.2.2,MacIntel,58.13953488,197.1767,197.7773,3,1,0.5881,,13,3,133,3,1,4,R,,3,,,,,,,
,,,,,,,,1,alphastar,2024-09-24_15h32.19.988,Motor_Task,2023.2.2,MacIntel,58.13953488,197.7776,198.3269,1,1,0.5462,,13,4,134,4,1,5,I,,1,,,,,,,
,,,,,,,,1,alphastar,2024-09-24_15h32.19.988,Motor_Task,2023.2.2,MacIntel,58.13953488,198.3272,198.9931,1,1,0.6617,,13,5,135,5,1,6,I,,1,,,,,,,
,,,,,,,,1,alphastar,2024-09-24_15h32.19.988,Motor_Task,2023.2.2,MacIntel,58.13953488,198.9935,199.6595,3,1,0.6577,,13,6,136,6,1,7,R,,3,,,,,,,
,,,,,,,,1,alphastar,2024-09-24_15h32.19.988,Motor_Task,2023.2.2,MacIntel,58.13953488,199.6597,200.1604,2,1,0.4899,,13,7,137,7,1,8,M,,2,,,,,,,
,,,,,,,,1,alphastar,2024-09-24_15h32.19.988,Motor_Task,2023.2.2,MacIntel,58.13953488,200.1606,200.7097,4,1,0.5412,,13,8,138,8,1,9,L,,4,,,,,,,
,,,,,,,,1,alphastar,2024-09-24_15h32.19.988,Motor_Task,2023.2.2,MacIntel,58.13953488,200.7101,201.2595,1,1,0.5476,,13,9,139,9,1,10,I,,1,,,,,,,
,,,,,,,,1,alphastar,2024-09-24_15h32.19.988,Motor_Task,2023.2.2,MacIntel,58.13953488,201.2597,201.8093,2,1,0.5472,,14,0,140,0,1,1,M,,2,,,,,,,
,,,,,,,,1,alphastar,2024-09-24_15h32.19.988,Motor_Task,2023.2.2,MacIntel,58.13953488,201.8095,202.4927,3,1,0.6719,,14,1,141,1,1,2,R,,3,,,,,,,
,,,,,,,,1,alphastar,2024-09-24_15h32.19.988,Motor_Task,2023.2.2,MacIntel,58.13953488,202.493,203.1929,2,1,0.6952,,14,2,142,2,1,3,M,,2,,,,,,,
,,,,,,,,1,alphastar,2024-09-24_15h32.19.988,Motor_Task,2023.2.2,MacIntel,58.13953488,203.193,203.6428,3,1,0.448,,14,3,143,3,1,4,R,,3,,,,,,,
,,,,,,,,1,alphastar,2024-09-24_15h32.19.988,Motor_Task,2023.2.2,MacIntel,58.13953488,203.6431,204.1266,1,1,0.4813,,14,4,144,4,1,5,I,,1,,,,,,,
,,,,,,,,1,alphastar,2024-09-24_15h32.19.988,Motor_Task,2023.2.2,MacIntel,58.13953488,204.1269,204.7261,1,1,0.5972,,14,5,145,5,1,6,I,,1,,,,,,,
,,,,,,,,1,alphastar,2024-09-24_15h32.19.988,Motor_Task,2023.2.2,MacIntel,58.13953488,204.7262,205.4098,3,1,0.6799,,14,6,146,6,1,7,R,,3,,,,,,,
,,,,,,,,1,alphastar,2024-09-24_15h32.19.988,Motor_Task,2023.2.2,MacIntel,58.13953488,205.4102,205.8926,2,1,0.4752,,14,7,147,7,1,8,M,,2,,,,,,,
,,,,,,,,1,alphastar,2024-09-24_15h32.19.988,Motor_Task,2023.2.2,MacIntel,58.13953488,205.8929,206.3927,4,1,0.4899,,14,8,148,8,1,9,L,,4,,,,,,,
,,,,,,,,1,alphastar,2024-09-24_15h32.19.988,Motor_Task,2023.2.2,MacIntel,58.13953488,206.3929,206.9426,1,1,0.5435,,14,9,149,9,1,10,I,,1,,,,,,,
,,,,,,,,1,alphastar,2024-09-24_15h32.19.988,Motor_Task,2023.2.2,MacIntel,58.13953488,206.9429,207.4263,2,1,0.4814,,15,0,150,0,1,1,M,,2,,,,,,,
,,,,,,,,1,alphastar,2024-09-24_15h32.19.988,Motor_Task,2023.2.2,MacIntel,58.13953488,207.4266,207.9427,3,1,0.515,,15,1,151,1,1,2,R,,3,,,,,,,
,,,,,,,,1,alphastar,2024-09-24_15h32.19.988,Motor_Task,2023.2.2,MacIntel,58.13953488,207.943,208.4258,2,1,0.4807,,15,2,152,2,1,3,M,,2,,,,,,,
,,,,,,,,1,alphastar,2024-09-24_15h32.19.988,Motor_Task,2023.2.2,MacIntel,58.13953488,208.426,209.0594,3,1,0.6316,,15,3,153,3,1,4,R,,3,,,,,,,
,,,,,,,,1,alphastar,2024-09-24_15h32.19.988,Motor_Task,2023.2.2,MacIntel,58.13953488,209.0596,209.7426,1,1,0.6807,,15,4,154,4,1,5,I,,1,,,,,,,
,,,,,,,,1,alphastar,2024-09-24_15h32.19.988,Motor_Task,2023.2.2,MacIntel,58.13953488,209.7428,210.3427,1,1,0.5996,,15,5,155,5,1,6,I,,1,,,,,,,
,,,,,,,,1,alphastar,2024-09-24_15h32.19.988,Motor_Task,2023.2.2,MacIntel,58.13953488,210.3431,211.0763,3,1,0.7315,,15,6,156,6,1,7,R,,3,,,,,,,
,,,,,,,,1,alphastar,2024-09-24_15h32.19.988,Motor_Task,2023.2.2,MacIntel,58.13953488,211.0766,211.5096,2,1,0.4322,,15,7,157,7,1,8,M,,2,,,,,,,
,,,,,,,,1,alphastar,2024-09-24_15h32.19.988,Motor_Task,2023.2.2,MacIntel,58.13953488,211.5099,212.1927,4,1,0.6815,,15,8,158,8,1,9,L,,4,,,,,,,
,,,,,,,,1,alphastar,2024-09-24_15h32.19.988,Motor_Task,2023.2.2,MacIntel,58.13953488,212.1931,212.626,1,1,0.432,,15,9,159,9,1,10,I,,1,,,,,,,
,,,,,,,,1,alphastar,2024-09-24_15h32.19.988,Motor_Task,2023.2.2,MacIntel,58.13953488,212.6262,213.2759,2,1,0.6451,,16,0,160,0,1,1,M,,2,,,,,,,
,,,,,,,,1,alphastar,2024-09-24_15h32.19.988,Motor_Task,2023.2.2,MacIntel,58.13953488,213.2761,213.7106,3,1,0.434,,16,1,161,1,1,2,R,,3,,,,,,,
,,,,,,,,1,alphastar,2024-09-24_15h32.19.988,Motor_Task,2023.2.2,MacIntel,58.13953488,213.7109,214.2266,2,1,0.5142,,16,2,162,2,1,3,M,,2,,,,,,,
,,,,,,,,1,alphastar,2024-09-24_15h32.19.988,Motor_Task,2023.2.2,MacIntel,58.13953488,214.2269,214.5928,1,0,0.3645,,16,3,163,3,1,4,R,,3,,,,,,,
,,,,,,,,1,alphastar,2024-09-24_15h32.19.988,Motor_Task,2023.2.2,MacIntel,58.13953488,214.5931,215.7101,1,1,1.116,,16,4,164,4,1,5,I,,1,,,,,,,
,,,,,,,,1,alphastar,2024-09-24_15h32.19.988,Motor_Task,2023.2.2,MacIntel,58.13953488,215.7103,216.4261,1,1,0.7062,,16,5,165,5,1,6,I,,1,,,,,,,
,,,,,,,,1,alphastar,2024-09-24_15h32.19.988,Motor_Task,2023.2.2,MacIntel,58.13953488,216.4264,217.0592,3,1,0.6316,,16,6,166,6,1,7,R,,3,,,,,,,
,,,,,,,,1,alphastar,2024-09-24_15h32.19.988,Motor_Task,2023.2.2,MacIntel,58.13953488,217.0594,217.5269,2,1,0.4651,,16,7,167,7,1,8,M,,2,,,,,,,
,,,,,,,,1,alphastar,2024-09-24_15h32.19.988,Motor_Task,2023.2.2,MacIntel,58.13953488,217.5272,217.9759,4,1,0.4471,,16,8,168,8,1,9,L,,4,,,,,,,
,,,,,,,,1,alphastar,2024-09-24_15h32.19.988,Motor_Task,2023.2.2,MacIntel,58.13953488,217.9761,218.7101,1,1,0.7319,,16,9,169,9,1,10,I,,1,,,,,,,
,,,,,,,,1,alphastar,2024-09-24_15h32.19.988,Motor_Task,2023.2.2,MacIntel,58.13953488,218.7104,219.3766,2,1,0.6631,,17,0,170,0,1,1,M,,2,,,,,,,
,,,,,,,,1,alphastar,2024-09-24_15h32.19.988,Motor_Task,2023.2.2,MacIntel,58.13953488,219.3768,219.91,3,1,0.5249,,17,1,171,1,1,2,R,,3,,,,,,,
,,,,,,,,1,alphastar,2024-09-24_15h32.19.988,Motor_Task,2023.2.2,MacIntel,58.13953488,219.9102,220.5599,2,1,0.6432,,17,2,172,2,1,3,M,,2,,,,,,,
,,,,,,,,1,alphastar,2024-09-24_15h32.19.988,Motor_Task,2023.2.2,MacIntel,58.13953488,220.5601,221.1926,3,1,0.6318,,17,3,173,3,1,4,R,,3,,,,,,,
,,,,,,,,1,alphastar,2024-09-24_15h32.19.988,Motor_Task,2023.2.2,MacIntel,58.13953488,221.1929,221.7934,1,1,0.5886,,17,4,174,4,1,5,I,,1,,,,,,,
,,,,,,,,1,alphastar,2024-09-24_15h32.19.988,Motor_Task,2023.2.2,MacIntel,58.13953488,221.7935,222.3091,1,1,0.5152,,17,5,175,5,1,6,I,,1,,,,,,,
,,,,,,,,1,alphastar,2024-09-24_15h32.19.988,Motor_Task,2023.2.2,MacIntel,58.13953488,222.3094,223.0435,3,1,0.732,,17,6,176,6,1,7,R,,3,,,,,,,
,,,,,,,,1,alphastar,2024-09-24_15h32.19.988,Motor_Task,2023.2.2,MacIntel,58.13953488,223.0437,223.4925,2,1,0.4484,,17,7,177,7,1,8,M,,2,,,,,,,
,,,,,,,,1,alphastar,2024-09-24_15h32.19.988,Motor_Task,2023.2.2,MacIntel,58.13953488,223.493,224.11,4,1,0.615,,17,8,178,8,1,9,L,,4,,,,,,,
,,,,,,,,1,alphastar,2024-09-24_15h32.19.988,Motor_Task,2023.2.2,MacIntel,58.13953488,224.1103,224.6591,1,1,0.5412,,17,9,179,9,1,10,I,,1,,,,,,,
,,,,,,,,1,alphastar,2024-09-24_15h32.19.988,Motor_Task,2023.2.2,MacIntel,58.13953488,224.6593,225.2097,2,1,0.5469,,18,0,180,0,1,1,M,,2,,,,,,,
,,,,,,,,1,alphastar,2024-09-24_15h32.19.988,Motor_Task,2023.2.2,MacIntel,58.13953488,225.21,225.6758,3,1,0.4654,,18,1,181,1,1,2,R,,3,,,,,,,
,,,,,,,,1,alphastar,2024-09-24_15h32.19.988,Motor_Task,2023.2.2,MacIntel,58.13953488,225.676,226.1594,2,1,0.483,,18,2,182,2,1,3,M,,2,,,,,,,
,,,,,,,,1,alphastar,2024-09-24_15h32.19.988,Motor_Task,2023.2.2,MacIntel,58.13953488,226.1597,226.7434,3,1,0.5807,,18,3,183,3,1,4,R,,3,,,,,,,
,,,,,,,,1,alphastar,2024-09-24_15h32.19.988,Motor_Task,2023.2.2,MacIntel,58.13953488,226.7436,227.3759,1,1,0.6306,,18,4,184,4,1,5,I,,1,,,,,,,
,,,,,,,,1,alphastar,2024-09-24_15h32.19.988,Motor_Task,2023.2.2,MacIntel,58.13953488,227.3761,227.9257,1,1,0.5487,,18,5,185,5,1,6,I,,1,,,,,,,
,,,,,,,,1,alphastar,2024-09-24_15h32.19.988,Motor_Task,2023.2.2,MacIntel,58.13953488,227.926,228.3933,3,1,0.4652,,18,6,186,6,1,7,R,,3,,,,,,,
,,,,,,,,1,alphastar,2024-09-24_15h32.19.988,Motor_Task,2023.2.2,MacIntel,58.13953488,228.3936,228.7429,2,1,0.3477,,18,7,187,7,1,8,M,,2,,,,,,,
,,,,,,,,1,alphastar,2024-09-24_15h32.19.988,Motor_Task,2023.2.2,MacIntel,58.13953488,228.7431,229.3923,4,1,0.6486,,18,8,188,8,1,9,L,,4,,,,,,,
,,,,,,,,1,alphastar,2024-09-24_15h32.19.988,Motor_Task,2023.2.2,MacIntel,58.13953488,229.3927,229.8933,1,1,0.4987,,18,9,189,9,1,10,I,,1,,,,,,,
,,,,,,,,1,alphastar,2024-09-24_15h32.19.988,Motor_Task,2023.2.2,MacIntel,58.13953488,229.8936,230.4102,2,1,0.5086,,19,0,190,0,1,1,M,,2,,,,,,,
,,,,,,,,1,alphastar,2024-09-24_15h32.19.988,Motor_Task,2023.2.2,MacIntel,58.13953488,230.4105,230.9755,3,1,0.5571,,19,1,191,1,1,2,R,,3,,,,,,,
,,,,,,,,1,alphastar,2024-09-24_15h32.19.988,Motor_Task,2023.2.2,MacIntel,58.13953488,230.9758,231.5102,2,1,0.5267,,19,2,192,2,1,3,M,,2,,,,,,,
,,,,,,,,1,alphastar,2024-09-24_15h32.19.988,Motor_Task,2023.2.2,MacIntel,58.13953488,231.5104,232.4093,3,1,0.898,,19,3,193,3,1,4,R,,3,,,,,,,
,,,,,,,,1,alphastar,2024-09-24_15h32.19.988,Motor_Task,2023.2.2,MacIntel,58.13953488,232.4097,232.9761,1,1,0.5644,,19,4,194,4,1,5,I,,1,,,,,,,
,,,,,,,,1,alphastar,2024-09-24_15h32.19.988,Motor_Task,2023.2.2,MacIntel,58.13953488,232.9763,233.5256,1,1,0.5421,,19,5,195,5,1,6,I,,1,,,,,,,
,,,,,,,,1,alphastar,2024-09-24_15h32.19.988,Motor_Task,2023.2.2,MacIntel,58.13953488,233.5258,234.3768,3,1,0.8482,,19,6,196,6,1,7,R,,3,,,,,,,
,,,,,,,,1,alphastar,2024-09-24_15h32.19.988,Motor_Task,2023.2.2,MacIntel,58.13953488,234.3772,234.6761,2,1,0.2965,,19,7,197,7,1,8,M,,2,,,,,,,
,,,,,,,,1,alphastar,2024-09-24_15h32.19.988,Motor_Task,2023.2.2,MacIntel,58.13953488,234.6764,235.3263,4,1,0.6477,,19,8,198,8,1,9,L,,4,,,,,,,
,,,,,,,,1,alphastar,2024-09-24_15h32.19.988,Motor_Task,2023.2.2,MacIntel,58.13953488,235.3266,235.76,2,0,0.4308,,19,9,199,9,1,10,I,,1,,,,,,,
,,,,,,,,1,alphastar,2024-09-24_15h32.19.988,Motor_Task,2023.2.2,MacIntel,58.13953488,235.7705,236.5094,2,1,0.7379,,,,,,,1,M,,2,0,0,0,0,1,,
,,,,,,,,1,alphastar,2024-09-24_15h32.19.988,Motor_Task,2023.2.2,MacIntel,58.13953488,236.51,237.1596,3,1,0.6476,,,,,,,2,R,,3,0,1,1,1,1,,
,,,,,,,,1,alphastar,2024-09-24_15h32.19.988,Motor_Task,2023.2.2,MacIntel,58.13953488,237.1599,237.5768,2,0,0.4071,,,,,,,7,R,,3,0,2,2,6,1,,
,,,,,,,,1,alphastar,2024-09-24_15h32.19.988,Motor_Task,2023.2.2,MacIntel,58.13953488,237.5773,238.4589,1,1,0.8716,,,,,,,10,I,,1,0,3,3,9,1,,
,,,,,,,,1,alphastar,2024-09-24_15h32.19.988,Motor_Task,2023.2.2,MacIntel,58.13953488,238.4592,238.9598,2,1,0.4941,,,,,,,8,M,,2,0,4,4,7,1,,
,,,,,,,,1,alphastar,2024-09-24_15h32.19.988,Motor_Task,2023.2.2,MacIntel,58.13953488,238.9601,239.676,1,1,0.715,,,,,,,6,I,,1,0,5,5,5,1,,
,,,,,,,,1,alphastar,2024-09-24_15h32.19.988,Motor_Task,2023.2.2,MacIntel,58.13953488,239.6763,240.2099,1,1,0.5255,,,,,,,5,I,,1,0,6,6,4,1,,
,,,,,,,,1,alphastar,2024-09-24_15h32.19.988,Motor_Task,2023.2.2,MacIntel,58.13953488,240.2102,240.8757,4,1,0.6639,,,,,,,9,L,,4,0,7,7,8,1,,
,,,,,,,,1,alphastar,2024-09-24_15h32.19.988,Motor_Task,2023.2.2,MacIntel,58.13953488,240.876,241.4425,2,1,0.561,,,,,,,3,M,,2,0,8,8,2,1,,
,,,,,,,,1,alphastar,2024-09-24_15h32.19.988,Motor_Task,2023.2.2,MacIntel,58.13953488,241.4428,242.0097,3,1,0.5647,,,,,,,4,R,,3,0,9,9,3,1,,
,,,,,,,,1,alphastar,2024-09-24_15h32.19.988,Motor_Task,2023.2.2,MacIntel,58.13953488,242.01,242.5427,2,1,0.531,,,,,,,8,M,,2,1,0,10,7,1,,
,,,,,,,,1,alphastar,2024-09-24_15h32.19.988,Motor_Task,2023.2.2,MacIntel,58.13953488,242.543,243.1092,3,1,0.5654,,,,,,,2,R,,3,1,1,11,1,1,,
,,,,,,,,1,alphastar,2024-09-24_15h32.19.988,Motor_Task,2023.2.2,MacIntel,58.13953488,243.1095,243.8257,3,1,0.714,,,,,,,4,R,,3,1,2,12,3,1,,
,,,,,,,,1,alphastar,2024-09-24_15h32.19.988,Motor_Task,2023.2.2,MacIntel,58.13953488,243.826,244.7097,3,1,0.8816,,,,,,,7,R,,3,1,3,13,6,1,,
,,,,,,,,1,alphastar,2024-09-24_15h32.19.988,Motor_Task,2023.2.2,MacIntel,58.13953488,244.71,245.3591,2,1,0.6481,,,,,,,1,M,,2,1,4,14,0,1,,
,,,,,,,,1,alphastar,2024-09-24_15h32.19.988,Motor_Task,2023.2.2,MacIntel,58.13953488,245.3595,245.9767,1,1,0.6153,,,,,,,5,I,,1,1,5,15,4,1,,
,,,,,,,,1,alphastar,2024-09-24_15h32.19.988,Motor_Task,2023.2.2,MacIntel,58.13953488,245.9771,246.5254,4,1,0.5477,,,,,,,9,L,,4,1,6,16,8,1,,
,,,,,,,,1,alphastar,2024-09-24_15h32.19.988,Motor_Task,2023.2.2,MacIntel,58.13953488,246.5257,247.0253,2,1,0.499,,,,,,,3,M,,2,1,7,17,2,1,,
,,,,,,,,1,alphastar,2024-09-24_15h32.19.988,Motor_Task,2023.2.2,MacIntel,58.13953488,247.0257,247.6925,1,1,0.6651,,,,,,,6,I,,1,1,8,18,5,1,,
,,,,,,,,1,alphastar,2024-09-24_15h32.19.988,Motor_Task,2023.2.2,MacIntel,58.13953488,247.6928,248.359,1,1,0.665,,,,,,,10,I,,1,1,9,19,9,1,,
,,,,,,,,1,alphastar,2024-09-24_15h32.19.988,Motor_Task,2023.2.2,MacIntel,58.13953488,248.3592,249.2758,1,1,0.9156,,,,,,,10,I,,1,2,0,20,9,1,,
,,,,,,,,1,alphastar,2024-09-24_15h32.19.988,Motor_Task,2023.2.2,MacIntel,58.13953488,249.2762,250.0095,3,1,0.7313,,,,,,,4,R,,3,2,1,21,3,1,,
,,,,,,,,1,alphastar,2024-09-24_15h32.19.988,Motor_Task,2023.2.2,MacIntel,58.13953488,250.0097,250.5589,2,1,0.5469,,,,,,,1,M,,2,2,2,22,0,1,,
,,,,,,,,1,alphastar,2024-09-24_15h32.19.988,Motor_Task,2023.2.2,MacIntel,58.13953488,250.5592,251.1592,1,1,0.5985,,,,,,,5,I,,1,2,3,23,4,1,,
,,,,,,,,1,alphastar,2024-09-24_15h32.19.988,Motor_Task,2023.2.2,MacIntel,58.13953488,251.1595,251.7759,4,1,0.6147,,,,,,,9,L,,4,2,4,24,8,1,,
,,,,,,,,1,alphastar,2024-09-24_15h32.19.988,Motor_Task,2023.2.2,MacIntel,58.13953488,251.7761,252.2755,2,1,0.4881,,,,,,,8,M,,2,2,5,25,7,1,,
,,,,,,,,1,alphastar,2024-09-24_15h32.19.988,Motor_Task,2023.2.2,MacIntel,58.13953488,252.2758,253.2591,3,1,0.9819,,,,,,,2,R,,3,2,6,26,1,1,,
,,,,,,,,1,alphastar,2024-09-24_15h32.19.988,Motor_Task,2023.2.2,MacIntel,58.13953488,253.2595,253.9762,3,1,0.7108,,,,,,,7,R,,3,2,7,27,6,1,,
,,,,,,,,1,alphastar,2024-09-24_15h32.19.988,Motor_Task,2023.2.2,MacIntel,58.13953488,253.9763,254.5586,2,1,0.5788,,,,,,,3,M,,2,2,8,28,2,1,,
,,,,,,,,1,alphastar,2024-09-24_15h32.19.988,Motor_Task,2023.2.2,MacIntel,58.13953488,254.5589,255.142,1,1,0.5823,,,,,,,6,I,,1,2,9,29,5,1,,
,,,,,,,,1,alphastar,2024-09-24_15h32.19.988,Motor_Task,2023.2.2,MacIntel,58.13953488,255.1422,256.0255,3,1,0.8821,,,,,,,4,R,,3,3,0,30,3,1,,
,,,,,,,,1,alphastar,2024-09-24_15h32.19.988,Motor_Task,2023.2.2,MacIntel,58.13953488,256.0259,256.792,3,1,0.7638,,,,,,,7,R,,3,3,1,31,6,1,,
,,,,,,,,1,alphastar,2024-09-24_15h32.19.988,Motor_Task,2023.2.2,MacIntel,58.13953488,256.7923,257.4257,2,1,0.6316,,,,,,,1,M,,2,3,2,32,0,1,,
,,,,,,,,1,alphastar,2024-09-24_15h32.19.988,Motor_Task,2023.2.2,MacIntel,58.13953488,257.4259,258.0092,1,1,0.5809,,,,,,,6,I,,1,3,3,33,5,1,,
,,,,,,,,1,alphastar,2024-09-24_15h32.19.988,Motor_Task,2023.2.2,MacIntel,58.13953488,258.0095,258.5588,3,1,0.5484,,,,,,,2,R,,3,3,4,34,1,1,,
,,,,,,,,1,alphastar,2024-09-24_15h32.19.988,Motor_Task,2023.2.2,MacIntel,58.13953488,258.5593,259.2596,1,1,0.698,,,,,,,10,I,,1,3,5,35,9,1,,
,,,,,,,,1,alphastar,2024-09-24_15h32.19.988,Motor_Task,2023.2.2,MacIntel,58.13953488,259.2598,259.8754,2,1,0.6143,,,,,,,8,M,,2,3,6,36,7,1,,
,,,,,,,,1,alphastar,2024-09-24_15h32.19.988,Motor_Task,2023.2.2,MacIntel,58.13953488,259.876,260.5258,1,1,0.6492,,,,,,,5,I,,1,3,7,37,4,1,,
,,,,,,,,1,alphastar,2024-09-24_15h32.19.988,Motor_Task,2023.2.2,MacIntel,58.13953488,260.5262,261.1929,2,1,0.6645,,,,,,,3,M,,2,3,8,38,2,1,,
,,,,,,,,1,alphastar,2024-09-24_15h32.19.988,Motor_Task,2023.2.2,MacIntel,58.13953488,261.1933,261.7588,3,0,0.5652,,,,,,,9,L,,4,3,9,39,8,1,,
,,,,,,,,1,alphastar,2024-09-24_15h32.19.988,Motor_Task,2023.2.2,MacIntel,58.13953488,261.759,262.5257,1,1,0.7656,,,,,,,5,I,,1,4,0,40,4,1,,
,,,,,,,,1,alphastar,2024-09-24_15h32.19.988,Motor_Task,2023.2.2,MacIntel,58.13953488,262.526,263.0592,2,1,0.5316,,,,,,,3,M,,2,4,1,41,2,1,,
,,,,,,,,1,alphastar,2024-09-24_15h32.19.988,Motor_Task,2023.2.2,MacIntel,58.13953488,263.0596,263.6262,4,1,0.5646,,,,,,,9,L,,4,4,2,42,8,1,,
,,,,,,,,1,alphastar,2024-09-24_15h32.19.988,Motor_Task,2023.2.2,MacIntel,58.13953488,263.6266,264.5258,1,1,0.899,,,,,,,10,I,,1,4,3,43,9,1,,
,,,,,,,,1,alphastar,2024-09-24_15h32.19.988,Motor_Task,2023.2.2,MacIntel,58.13953488,264.5262,265.3263,2,1,0.7903,,,,,,,8,M,,2,4,4,44,7,1,,
,,,,,,,,1,alphastar,2024-09-24_15h32.19.988,Motor_Task,2023.2.2,MacIntel,58.13953488,265.3266,265.9758,1,1,0.647,,,,,,,6,I,,1,4,5,45,5,1,,
,,,,,,,,1,alphastar,2024-09-24_15h32.19.988,Motor_Task,2023.2.2,MacIntel,58.13953488,265.9761,266.8097,3,1,0.8261,,,,,,,4,R,,3,4,6,46,3,1,,
,,,,,,,,1,alphastar,2024-09-24_15h32.19.988,Motor_Task,2023.2.2,MacIntel,58.13953488,266.8101,267.4919,2,1,0.681,,,,,,,1,M,,2,4,7,47,0,1,,
,,,,,,,,1,alphastar,2024-09-24_15h32.19.988,Motor_Task,2023.2.2,MacIntel,58.13953488,267.4922,268.3089,3,1,0.8158,,,,,,,7,R,,3,4,8,48,6,1,,
,,,,,,,,1,alphastar,2024-09-24_15h32.19.988,Motor_Task,2023.2.2,MacIntel,58.13953488,268.3094,268.9762,3,1,0.6548,,,,,,,2,R,,3,4,9,49,1,1,,
,,,,,,,,1,alphastar,2024-09-24_15h32.19.988,Motor_Task,2023.2.2,MacIntel,58.13953488,,,,,,,,,,,,,,,,,,,,,268.9772,272.9754