Trigger.started,Trigger.stopped,key_resp_4.keys,mouse.x,mouse.y,mouse.leftButton,mouse.midButton,mouse.rightButton,Session,Subject,date,expName,psychopyVersion,OS,frameRate,complex_block.started,complex_block.stopped,key_resp.keys,key_resp.corr,key_resp.rt,key_resp.duration,complex_block_loop.thisRepN,complex_block_loop.thisTrialN,complex_block_loop.thisN,complex_block_loop.thisIndex,complex_block_loop.ran,trial,finger,markerPos,correctResp,new_block_loop.thisRepN,new_block_loop.thisTrialN,new_block_loop.thisN,new_block_loop.thisIndex,new_block_loop.ran,endBuffer.started,endBuffer.stopped
0.0002,66.6428,,-0.170669158,-0.343733016,1,0,0,1,elise,2024-09-24_15h33.10.570,Motor_Task,2023.2.2,MacIntel,59.88023952,,,,,,,,,,,,,,,,,,,,,,
,,,,,,,,1,elise,2024-09-24_15h33.10.570,Motor_Task,2023.2.2,MacIntel,59.88023952,66.6622,67.7339,2,1,1.0607,,0,0,0,0,1,1,M,,2,,,,,,,
,,,,,,,,1,elise,2024-09-24_15h33.10.570,Motor_Task,2023.2.2,MacIntel,59.88023952,67.7346,68.3833,3,1,0.6346,,0,1,1,1,1,2,R,,3,,,,,,,
,,,,,,,,1,elise,2024-09-24_15h33.10.570,Motor_Task,2023.2.2,MacIntel,59.88023952,68.3837,69.2158,2,1,0.8245,,0,2,2,2,1,3,M,,2,,,,,,,
,,,,,,,,1,elise,2024-09-24_15h33.10.570,Motor_Task,2023.2.2,MacIntel,59.88023952,69.2164,69.9,3,1,0.6709,,0,3,3,3,1,4,R,,3,,,,,,,
,,,,,,,,1,elise,2024-09-24_15h33.10.570,Motor_Task,2023.2.2,MacIntel,59.88023952,69.9006,70.5334,1,1,0.6202,,0,4,4,4,1,5,I,,1,,,,,,,
,,,,,,,,1,elise,2024-09-24_15h33.10.570,Motor_Task,2023.2.2,MacIntel,59.88023952,70.5339,71.149,1,1,0.6032,,0,5,5,5,1,6,I,,1,,,,,,,
,,,,,,,,1,elise,2024-09-24_15h33.10.570,Motor_Task,2023.2.2,MacIntel,59.88023952,71.1495,71.7664,3,1,0.605,,0,6,6,6,1,7,R,,3,,,,,,,
,,,,,,,,1,elise,2024-09-24_15h33.10.570,Motor_Task,2023.2.2,MacIntel,59.88023952,71.7669,72.5157,2,1,0.7382,,0,7,7,7,1,8,M,,2,,,,,,,
,,,,,,,,1,elise,2024-09-24_15h33.10.570,Motor_Task,2023.2.2,MacIntel,59.88023952,72.516,73.8002,4,1,1.2836,,0,8,8,8,1,9,L,,4,,,,,,,
,,,,,,,,1,elise,2024-09-24_15h33.10.570,Motor_Task,2023.2.2,MacIntel,59.88023952,73.8006,74.5824,1,1,0.7712,,0,9,9,9,1,10,I,,1,,,,,,,
,,,,,,,,1,elise,2024-09-24_15h33.10.570,Motor_Task,2023.2.2,MacIntel,59.88023952,74.5827,75.2999,2,1,0.7045,,1,0,10,0,1,1,M,,2,,,,,,,
,,,,,,,,1,elise,2024-09-24_15h33.10.570,Motor_Task,2023.2.2,MacIntel,59.88023952,75.3004,75.85,3,1,0.5371,,1,1,11,1,1,2,R,,3,,,,,,,
,,,,,,,,1,elise,2024-09-24_15h33.10.570,Motor_Task,2023.2.2,MacIntel,59.88023952,75.8504,76.6153,2,1,0.7521,,1,2,12,2,1,3,M,,2,,,,,,,
,,,,,,,,1,elise,2024-09-24_15h33.10.570,Motor_Task,2023.2.2,MacIntel,59.88023952,76.6157,77.4333,3,1,0.8049,,1,3,13,3,1,4,R,,3,,,,,,,
,,,,,,,,1,elise,2024-09-24_15h33.10.570,Motor_Task,2023.2.2,MacIntel,59.88023952,77.4337,78.1,1,1,0.656,,1,4,14,4,1,5,I,,1,,,,,,,
,,,,,,,,1,elise,2024-09-24_15h33.10.570,Motor_Task,2023.2.2,MacIntel,59.88023952,78.1004,78.7999,1,1,0.6865,,1,5,15,5,1,6,I,,1,,,,,,,
,,,,,,,,1,elise,2024-09-24_15h33.10.570,Motor_Task,2023.2.2,MacIntel,59.88023952,78.8003,79.7998,3,1,0.9867,,1,6,16,6,1,7,R,,3,,,,,,,
,,,,,,,,1,elise,2024-09-24_15h33.10.570,Motor_Task,2023.2.2,MacIntel,59.88023952,79.8003,81.25,2,1,1.4353,,1,7,17,7,1,8,M,,2,,,,,,,
,,,,,,,,1,elise,2024-09-24_15h33.10.570,Motor_Task,2023.2.2,MacIntel,59.88023952,81.2505,81.8997,4,1,0.6378,,1,8,18,8,1,9,L,,4,,,,,,,
,,,,,,,,1,elise,2024-09-24_15h33.10.570,Motor_Task,2023.2.2,MacIntel,59.88023952,81.9001,82.6324,1,1,0.7201,,1,9,19,9,1,10,I,,1,,,,,,,
,,,,,,,,1,elise,2024-09-24_15h33.10.570,Motor_Task,2023.2.2,MacIntel,59.88023952,82.6328,83.2656,2,1,0.6198,,2,0,20,0,1,1,M,,2,,,,,,,
,,,,,,,,1,elise,2024-09-24_15h33.10.570,Motor_Task,2023.2.2,MacIntel,59.88023952,83.2659,83.866,3,1,0.5874,,2,1,21,1,1,2,R,,3,,,,,,,
,,,,,,,,1,elise,2024-09-24_15h33.10.570,Motor_Task,2023.2.2,MacIntel,59.88023952,83.8665,84.5665,2,1,0.6996,,2,2,22,2,1,3,M,,2,,,,,,,
,,,,,,,,1,elise,2024-09-24_15h33.10.570,Motor_Task,2023.2.2,MacIntel,59.88023952,84.5666,85.0996,3,1,0.5313,,2,3,23,3,1,4,R,,3,,,,,,,
,,,,,,,,1,elise,2024-09-24_15h33.10.570,Motor_Task,2023.2.2,MacIntel,59.88023952,85.1,85.7664,1,1,0.6545,,2,4,24,4,1,5,I,,1,,,,,,,
,,,,,,,,1,elise,2024-09-24_15h33.10.570,Motor_Task,2023.2.2,MacIntel,59.88023952,85.7668,86.3167,1,1,0.5365,,2,5,25,5,1,6,I,,1,,,,,,,
,,,,,,,,1,elise,2024-09-24_15h33.10.570,Motor_Task,2023.2.2,MacIntel,59.88023952,86.317,86.9166,3,1,0.5898,,2,6,26,6,1,7,R,,3,,,,,,,
,,,,,,,,1,elise,2024-09-24_15h33.10.570,Motor_Task,2023.2.2,MacIntel,59.88023952,86.9169,87.449,2,1,0.5192,,2,7,27,7,1,8,M,,2,,,,,,,
,,,,,,,,1,elise,2024-09-24_15h33.10.570,Motor_Task,2023.2.2,MacIntel,59.88023952,87.4495,88.0329,4,1,0.5704,,2,8,28,8,1,9,L,,4,,,,,,,
,,,,,,,,1,elise,2024-09-24_15h33.10.570,Motor_Task,2023.2.2,MacIntel,59.88023952,88.0333,88.7824,1,1,0.7387,,2,9,29,9,1,10,I,,1,,,,,,,
,,,,,,,,1,elise,2024-09-24_15h33.10.570,Motor_Task,2023.2.2,MacIntel,59.88023952,88.7828,89.3833,2,1,0.5876,,3,0,30,0,1,1,M,,2,,,,,,,
,,,,,,,,1,elise,2024-09-24_15h33.10.570,Motor_Task,2023.2.2,MacIntel,59.88023952,89.3838,89.9165,3,1,0.5315,,3,1,31,1,1,2,R,,3,,,,,,,
,,,,,,,,1,elise,2024-09-24_15h33.10.570,Motor_Task,2023.2.2,MacIntel,59.88023952,89.9169,90.4332,2,1,0.5147,,3,2,32,2,1,3,M,,2,,,,,,,
,,,,,,,,1,elise,2024-09-24_15h33.10.570,Motor_Task,2023.2.2,MacIntel,59.88023952,90.4336,91.0658,3,1,0.6201,,3,3,33,3,1,4,R,,3,,,,,,,
,,,,,,,,1,elise,2024-09-24_15h33.10.570,Motor_Task,2023.2.2,MacIntel,59.88023952,91.0661,91.6164,1,1,0.549,,3,4,34,4,1,5,I,,1,,,,,,,
,,,,,,,,1,elise,2024-09-24_15h33.10.570,Motor_Task,2023.2.2,MacIntel,59.88023952,91.6168,92.2323,1,1,0.6087,,3,5,35,5,1,6,I,,1,,,,,,,
,,,,,,,,1,elise,2024-09-24_15h33.10.570,Motor_Task,2023.2.2,MacIntel,59.88023952,92.2328,92.9489,3,1,0.7044,,3,6,36,6,1,7,R,,3,,,,,,,
,,,,,,,,1,elise,2024-09-24_15h33.10.570,Motor_Task,2023.2.2,MacIntel,59.88023952,92.9492,93.4663,2,1,0.5042,,3,7,37,7,1,8,M,,2,,,,,,,
,,,,,,,,1,elise,2024-09-24_15h33.10.570,Motor_Task,2023.2.2,MacIntel,59.88023952,93.4666,94.0666,4,1,0.5883,,3,8,38,8,1,9,L,,4,,,,,,,
,,,,,,,,1,elise,2024-09-24_15h33.10.570,Motor_Task,2023.2.2,MacIntel,59.88023952,94.067,94.8822,1,1,0.8031,,3,9,39,9,1,10,I,,1,,,,,,,
,,,,,,,,1,elise,2024-09-24_15h33.10.570,Motor_Task,2023.2.2,MacIntel,59.88023952,94.8825,95.4163,2,1,0.52,,4,0,40,0,1,1,M,,2,,,,,,,
,,,,,,,,1,elise,2024-09-24_15h33.10.570,Motor_Task,2023.2.2,MacIntel,59.88023952,95.4166,95.9832,3,1,0.565,,4,1,41,1,1,2,R,,3,,,,,,,
,,,,,,,,1,elise,2024-09-24_15h33.10.570,Motor_Task,2023.2.2,MacIntel,59.88023952,95.9836,96.6165,2,1,0.631,,4,2,42,2,1,3,M,,2,,,,,,,
,,,,,,,,1,elise,2024-09-24_15h33.10.570,Motor_Task,2023.2.2,MacIntel,59.88023952,96.617,97.2327,3,1,0.6034,,4,3,43,3,1,4,R,,3,,,,,,,
,,,,,,,,1,elise,2024-09-24_15h33.10.570,Motor_Task,2023.2.2,MacIntel,59.88023952,97.2332,97.8165,1,1,0.5712,,4,4,44,4,1,5,I,,1,,,,,,,
,,,,,,,,1,elise,2024-09-24_15h33.10.570,Motor_Task,2023.2.2,MacIntel,59.88023952,97.8168,98.3667,1,1,0.5379,,4,5,45,5,1,6,I,,1,,,,,,,
,,,,,,,,1,elise,2024-09-24_15h33.10.570,Motor_Task,2023.2.2,MacIntel,59.88023952,98.3672,99.0335,3,1,0.6544,,4,6,46,6,1,7,R,,3,,,,,,,
,,,,,,,,1,elise,2024-09-24_15h33.10.570,Motor_Task,2023.2.2,MacIntel,59.88023952,99.034,99.5835,2,1,0.5399,,4,7,47,7,1,8,M,,2,,,,,,,
,,,,,,,,1,elise,2024-09-24_15h33.10.570,Motor_Task,2023.2.2,MacIntel,59.88023952,99.584,100.2333,4,1,0.6365,,4,8,48,8,1,9,L,,4,,,,,,,
,,,,,,,,1,elise,2024-09-24_15h33.10.570,Motor_Task,2023.2.2,MacIntel,59.88023952,100.2338,100.9166,1,1,0.6696,,4,9,49,9,1,10,I,,1,,,,,,,
,,,,,,,,1,elise,2024-09-24_15h33.10.570,Motor_Task,2023.2.2,MacIntel,59.88023952,100.9171,101.6,2,1,0.6742,,5,0,50,0,1,1,M,,2,,,,,,,
,,,,,,,,1,elise,2024-09-24_15h33.10.570,Motor_Task,2023.2.2,MacIntel,59.88023952,101.6005,102.0998,3,1,0.4857,,5,1,51,1,1,2,R,,3,,,,,,,
,,,,,,,,1,elise,2024-09-24_15h33.10.570,Motor_Task,2023.2.2,MacIntel,59.88023952,102.1004,102.8332,2,1,0.7202,,5,2,52,2,1,3,M,,2,,,,,,,
,,,,,,,,1,elise,2024-09-24_15h33.10.570,Motor_Task,2023.2.2,MacIntel,59.88023952,102.8337,103.3663,3,1,0.5203,,5,3,53,3,1,4,R,,3,,,,,,,
,,,,,,,,1,elise,2024-09-24_15h33.10.570,Motor_Task,2023.2.2,MacIntel,59.88023952,103.3664,104.0656,1,1,0.6865,,5,4,54,4,1,5,I,,1,,,,,,,
,,,,,,,,1,elise,2024-09-24_15h33.10.570,Motor_Task,2023.2.2,MacIntel,59.88023952,104.066,104.5666,1,1,0.4873,,5,5,55,5,1,6,I,,1,,,,,,,
,,,,,,,,1,elise,2024-09-24_15h33.10.570,Motor_Task,2023.2.2,MacIntel,59.88023952,104.5671,105.1822,3,1,0.6023,,5,6,56,6,1,7,R,,3,,,,,,,
,,,,,,,,1,elise,2024-09-24_15h33.10.570,Motor_Task,2023.2.2,MacIntel,59.88023952,105.1826,105.7165,2,1,0.5198,,5,7,57,7,1,8,M,,2,,,,,,,
,,,,,,,,1,elise,2024-09-24_15h33.10.570,Motor_Task,2023.2.2,MacIntel,59.88023952,105.717,106.3989,4,1,0.6697,,5,8,58,8,1,9,L,,4,,,,,,,
,,,,,,,,1,elise,2024-09-24_15h33.10.570,Motor_Task,2023.2.2,MacIntel,59.88023952,106.3992,107.1333,1,1,0.725,,5,9,59,9,1,10,I,,1,,,,,,,
,,,,,,,,1,elise,2024-09-24_15h33.10.570,Motor_Task,2023.2.2,MacIntel,59.88023952,107.1338,107.6657,2,1,0.5196,,6,0,60,0,1,1,M,,2,,,,,,,
,,,,,,,,1,elise,2024-09-24_15h33.10.570,Motor_Task,2023.2.2,MacIntel,59.88023952,107.6659,108.25,3,1,0.5713,,6,1,61,1,1,2,R,,3,,,,,,,
,,,,,,,,1,elise,2024-09-24_15h33.10.570,Motor_Task,2023.2.2,MacIntel,59.88023952,108.2505,108.8999,2,1,0.6368,,6,2,62,2,1,3,M,,2,,,,,,,
,,,,,,,,1,elise,2024-09-24_15h33.10.570,Motor_Task,2023.2.2,MacIntel,59.88023952,108.9005,109.4666,3,1,0.5535,,6,3,63,3,1,4,R,,3,,,,,,,
,,,,,,,,1,elise,2024-09-24_15h33.10.570,Motor_Task,2023.2.2,MacIntel,59.88023952,109.4669,110.05,1,1,0.5745,,6,4,64,4,1,5,I,,1,,,,,,,
,,,,,,,,1,elise,2024-09-24_15h33.10.570,Motor_Task,2023.2.2,MacIntel,59.88023952,110.0504,110.616,1,1,0.5521,,6,5,65,5,1,6,I,,1,,,,,,,
,,,,,,,,1,elise,2024-09-24_15h33.10.570,Motor_Task,2023.2.2,MacIntel,59.88023952,110.6165,111.1998,3,1,0.5707,,6,6,66,6,1,7,R,,3,,,,,,,
,,,,,,,,1,elise,2024-09-24_15h33.10.570,Motor_Task,2023.2.2,MacIntel,59.88023952,111.2003,111.75,2,1,0.5357,,6,7,67,7,1,8,M,,2,,,,,,,
,,,,,,,,1,elise,2024-09-24_15h33.10.570,Motor_Task,2023.2.2,MacIntel,59.88023952,111.7505,112.2991,4,1,0.5352,,6,8,68,8,1,9,L,,4,,,,,,,
,,,,,,,,1,elise,2024-09-24_15h33.10.570,Motor_Task,2023.2.2,MacIntel,59.88023952,112.2993,112.9824,1,1,0.671,,6,9,69,9,1,10,I,,1,,,,,,,
,,,,,,,,1,elise,2024-09-24_15h33.10.570,Motor_Task,2023.2.2,MacIntel,59.88023952,112.9829,113.5832,2,1,0.5898,,7,0,70,0,1,1,M,,2,,,,,,,
,,,,,,,,1,elise,2024-09-24_15h33.10.570,Motor_Task,2023.2.2,MacIntel,59.88023952,113.5837,114.1333,3,1,0.5363,,7,1,71,1,1,2,R,,3,,,,,,,
,,,,,,,,1,elise,2024-09-24_15h33.10.570,Motor_Task,2023.2.2,MacIntel,59.88023952,114.1338,114.8159,2,1,0.6699,,7,2,72,2,1,3,M,,2,,,,,,,
,,,,,,,,1,elise,2024-09-24_15h33.10.570,Motor_Task,2023.2.2,MacIntel,59.88023952,114.8163,115.4322,3,1,0.6042,,7,3,73,3,1,4,R,,3,,,,,,,
,,,,,,,,1,elise,2024-09-24_15h33.10.570,Motor_Task,2023.2.2,MacIntel,59.88023952,115.4326,116.1165,1,1,0.6829,,7,4,74,4,1,5,I,,1,,,,,,,
,,,,,,,,1,elise,2024-09-24_15h33.10.570,Motor_Task,2023.2.2,MacIntel,59.88023952,116.117,116.6999,1,1,0.5718,,7,5,75,5,1,6,I,,1,,,,,,,
,,,,,,,,1,elise,2024-09-24_15h33.10.570,Motor_Task,2023.2.2,MacIntel,59.88023952,116.7004,117.2822,3,1,0.5809,,7,6,76,6,1,7,R,,3,,,,,,,
,,,,,,,,1,elise,2024-09-24_15h33.10.570,Motor_Task,2023.2.2,MacIntel,59.88023952,117.2825,117.8655,2,1,0.5712,,7,7,77,7,1,8,M,,2,,,,,,,
,,,,,,,,1,elise,2024-09-24_15h33.10.570,Motor_Task,2023.2.2,MacIntel,59.88023952,117.8659,118.5832,4,1,0.7046,,7,8,78,8,1,9,L,,4,,,,,,,
,,,,,,,,1,elise,2024-09-24_15h33.10.570,Motor_Task,2023.2.2,MacIntel,59.88023952,118.5837,119.1999,1,1,0.6053,,7,9,79,9,1,10,I,,1,,,,,,,
,,,,,,,,1,elise,2024-09-24_15h33.10.570,Motor_Task,2023.2.2,MacIntel,59.88023952,119.2003,119.7329,2,1,0.5242,,8,0,80,0,1,1,M,,2,,,,,,,
,,,,,,,,1,elise,2024-09-24_15h33.10.570,Motor_Task,2023.2.2,MacIntel,59.88023952,119.7333,120.2821,3,1,0.547,,8,1,81,1,1,2,R,,3,,,,,,,
,,,,,,,,1,elise,2024-09-24_15h33.10.570,Motor_Task,2023.2.2,MacIntel,59.88023952,120.2825,120.8662,2,1,0.5729,,8,2,82,2,1,3,M,,2,,,,,,,
,,,,,,,,1,elise,2024-09-24_15h33.10.570,Motor_Task,2023.2.2,MacIntel,59.88023952,120.8666,121.3831,3,1,0.5033,,8,3,83,3,1,4,R,,3,,,,,,,
,,,,,,,,1,elise,2024-09-24_15h33.10.570,Motor_Task,2023.2.2,MacIntel,59.88023952,121.3834,121.9655,1,1,0.5818,,8,4,84,4,1,5,I,,1,,,,,,,
,,,,,,,,1,elise,2024-09-24_15h33.10.570,Motor_Task,2023.2.2,MacIntel,59.88023952,121.9658,122.5332,1,1,0.5538,,8,5,85,5,1,6,I,,1,,,,,,,
,,,,,,,,1,elise,2024-09-24_15h33.10.570,Motor_Task,2023.2.2,MacIntel,59.88023952,122.5336,123.1165,3,1,0.5751,,8,6,86,6,1,7,R,,3,,,,,,,
,,,,,,,,1,elise,2024-09-24_15h33.10.570,Motor_Task,2023.2.2,MacIntel,59.88023952,123.1169,123.6488,2,1,0.5303,,8,7,87,7,1,8,M,,2,,,,,,,
,,,,,,,,1,elise,2024-09-24_15h33.10.570,Motor_Task,2023.2.2,MacIntel,59.88023952,123.6491,124.4835,4,1,0.8341,,8,8,88,8,1,9,L,,4,,,,,,,
,,,,,,,,1,elise,2024-09-24_15h33.10.570,Motor_Task,2023.2.2,MacIntel,59.88023952,124.484,125.183,1,1,0.6985,,8,9,89,9,1,10,I,,1,,,,,,,
,,,,,,,,1,elise,2024-09-24_15h33.10.570,Motor_Task,2023.2.2,MacIntel,59.88023952,125.1833,125.7821,2,1,0.5869,,9,0,90,0,1,1,M,,2,,,,,,,
,,,,,,,,1,elise,2024-09-24_15h33.10.570,Motor_Task,2023.2.2,MacIntel,59.88023952,125.7825,126.2821,3,1,0.4873,,9,1,91,1,1,2,R,,3,,,,,,,
,,,,,,,,1,elise,2024-09-24_15h33.10.570,Motor_Task,2023.2.2,MacIntel,59.88023952,126.2825,126.8831,2,1,0.6002,,9,2,92,2,1,3,M,,2,,,,,,,
,,,,,,,,1,elise,2024-09-24_15h33.10.570,Motor_Task,2023.2.2,MacIntel,59.88023952,126.8834,127.3488,3,1,0.4536,,9,3,93,3,1,4,R,,3,,,,,,,
,,,,,,,,1,elise,2024-09-24_15h33.10.570,Motor_Task,2023.2.2,MacIntel,59.88023952,127.3491,127.9163,1,1,0.5667,,9,4,94,4,1,5,I,,1,,,,,,,
,,,,,,,,1,elise,2024-09-24_15h33.10.570,Motor_Task,2023.2.2,MacIntel,59.88023952,127.9167,128.4661,1,1,0.5354,,9,5,95,5,1,6,I,,1,,,,,,,
,,,,,,,,1,elise,2024-09-24_15h33.10.570,Motor_Task,2023.2.2,MacIntel,59.88023952,128.4665,128.9989,3,1,0.532,,9,6,96,6,1,7,R,,3,,,,,,,
,,,,,,,,1,elise,2024-09-24_15h33.10.570,Motor_Task,2023.2.2,MacIntel,59.88023952,128.9992,129.5656,2,1,0.5562,,9,7,97,7,1,8,M,,2,,,,,,,
,,,,,,,,1,elise,2024-09-24_15h33.10.570,Motor_Task,2023.2.2,MacIntel,59.88023952,129.5661,130.0833,4,1,0.5033,,9,8,98,8,1,9,L,,4,,,,,,,
,,,,,,,,1,elise,2024-09-24_15h33.10.570,Motor_Task,2023.2.2,MacIntel,59.88023952,130.0837,130.6655,1,1,0.5701,,9,9,99,9,1,10,I,,1,,,,,,,
,,,,,,,,1,elise,2024-09-24_15h33.10.570,Motor_Task,2023.2.2,MacIntel,59.88023952,130.6659,131.1998,2,1,0.5254,,10,0,100,0,1,1,M,,2,,,,,,,
,,,,,,,,1,elise,2024-09-24_15h33.10.570,Motor_Task,2023.2.2,MacIntel,59.88023952,131.2003,131.7164,3,1,0.5035,,10,1,101,1,1,2,R,,3,,,,,,,
,,,,,,,,1,elise,2024-09-24_15h33.10.570,Motor_Task,2023.2.2,MacIntel,59.88023952,131.7169,132.2823,2,1,0.5536,,10,2,102,2,1,3,M,,2,,,,,,,
,,,,,,,,1,elise,2024-09-24_15h33.10.570,Motor_Task,2023.2.2,MacIntel,59.88023952,132.2826,132.8161,3,1,0.531,,10,3,103,3,1,4,R,,3,,,,,,,
,,,,,,,,1,elise,2024-09-24_15h33.10.570,Motor_Task,2023.2.2,MacIntel,59.88023952,132.8163,133.3831,1,1,0.5537,,10,4,104,4,1,5,I,,1,,,,,,,
,,,,,,,,1,elise,2024-09-24_15h33.10.570,Motor_Task,2023.2.2,MacIntel,59.88023952,133.3836,133.9654,1,1,0.5814,,10,5,105,5,1,6,I,,1,,,,,,,
,,,,,,,,1,elise,2024-09-24_15h33.10.570,Motor_Task,2023.2.2,MacIntel,59.88023952,133.9657,134.5164,3,1,0.537,,10,6,106,6,1,7,R,,3,,,,,,,
,,,,,,,,1,elise,2024-09-24_15h33.10.570,Motor_Task,2023.2.2,MacIntel,59.88023952,134.5168,135.0164,2,1,0.492,,10,7,107,7,1,8,M,,2,,,,,,,
,,,,,,,,1,elise,2024-09-24_15h33.10.570,Motor_Task,2023.2.2,MacIntel,59.88023952,135.0169,135.5499,4,1,0.5201,,10,8,108,8,1,9,L,,4,,,,,,,
,,,,,,,,1,elise,2024-09-24_15h33.10.570,Motor_Task,2023.2.2,MacIntel,59.88023952,135.5503,136.1331,1,1,0.5697,,10,9,109,9,1,10,I,,1,,,,,,,
,,,,,,,,1,elise,2024-09-24_15h33.10.570,Motor_Task,2023.2.2,MacIntel,59.88023952,136.1336,136.6653,2,1,0.5307,,11,0,110,0,1,1,M,,2,,,,,,,
,,,,,,,,1,elise,2024-09-24_15h33.10.570,Motor_Task,2023.2.2,MacIntel,59.88023952,136.6656,137.1988,3,1,0.5232,,11,1,111,1,1,2,R,,3,,,,,,,
,,,,,,,,1,elise,2024-09-24_15h33.10.570,Motor_Task,2023.2.2,MacIntel,59.88023952,137.1992,137.7665,2,1,0.5542,,11,2,112,2,1,3,M,,2,,,,,,,
,,,,,,,,1,elise,2024-09-24_15h33.10.570,Motor_Task,2023.2.2,MacIntel,59.88023952,137.7669,138.2663,3,1,0.4985,,11,3,113,3,1,4,R,,3,,,,,,,
,,,,,,,,1,elise,2024-09-24_15h33.10.570,Motor_Task,2023.2.2,MacIntel,59.88023952,138.2668,138.8831,1,1,0.6026,,11,4,114,4,1,5,I,,1,,,,,,,
,,,,,,,,1,elise,2024-09-24_15h33.10.570,Motor_Task,2023.2.2,MacIntel,59.88023952,138.8836,139.4499,1,1,0.5555,,11,5,115,5,1,6,I,,1,,,,,,,
,,,,,,,,1,elise,2024-09-24_15h33.10.570,Motor_Task,2023.2.2,MacIntel,59.88023952,139.4504,140.0154,3,1,0.553,,11,6,116,6,1,7,R,,3,,,,,,,
,,,,,,,,1,elise,2024-09-24_15h33.10.570,Motor_Task,2023.2.2,MacIntel,59.88023952,140.0157,140.5498,2,1,0.5218,,11,7,117,7,1,8,M,,2,,,,,,,
,,,,,,,,1,elise,2024-09-24_15h33.10.570,Motor_Task,2023.2.2,MacIntel,59.88023952,140.5502,141.5662,4,1,1.0156,,11,8,118,8,1,9,L,,4,,,,,,,
,,,,,,,,1,elise,2024-09-24_15h33.10.570,Motor_Task,2023.2.2,MacIntel,59.88023952,141.5666,142.133,1,1,0.5547,,11,9,119,9,1,10,I,,1,,,,,,,
,,,,,,,,1,elise,2024-09-24_15h33.10.570,Motor_Task,2023.2.2,MacIntel,59.88023952,142.1335,142.6828,2,1,0.5375,,12,0,120,0,1,1,M,,2,,,,,,,
,,,,,,,,1,elise,2024-09-24_15h33.10.570,Motor_Task,2023.2.2,MacIntel,59.88023952,142.6832,143.1822,3,1,0.4977,,12,1,121,1,1,2,R,,3,,,,,,,
,,,,,,,,1,elise,2024-09-24_15h33.10.570,Motor_Task,2023.2.2,MacIntel,59.88023952,143.1824,143.7331,1,0,0.5386,,12,2,122,2,1,3,M,,2,,,,,,,
,,,,,,,,1,elise,2024-09-24_15h33.10.570,Motor_Task,2023.2.2,MacIntel,59.88023952,143.7335,145.2487,3,1,1.5036,,12,3,123,3,1,4,R,,3,,,,,,,
,,,,,,,,1,elise,2024-09-24_15h33.10.570,Motor_Task,2023.2.2,MacIntel,59.88023952,145.2493,145.8999,1,1,0.6389,,12,4,124,4,1,5,I,,1,,,,,,,
,,,,,,,,1,elise,2024-09-24_15h33.10.570,Motor_Task,2023.2.2,MacIntel,59.88023952,145.9003,146.4655,1,1,0.5532,,12,5,125,5,1,6,I,,1,,,,,,,
,,,,,,,,1,elise,2024-09-24_15h33.10.570,Motor_Task,2023.2.2,MacIntel,59.88023952,146.466,147.0333,3,1,0.5541,,12,6,126,6,1,7,R,,3,,,,,,,
,,,,,,,,1,elise,2024-09-24_15h33.10.570,Motor_Task,2023.2.2,MacIntel,59.88023952,147.0337,147.5165,2,1,0.4824,,12,7,127,7,1,8,M,,2,,,,,,,
,,,,,,,,1,elise,2024-09-24_15h33.10.570,Motor_Task,2023.2.2,MacIntel,59.88023952,147.5169,148.1997,4,1,0.6821,,12,8,128,8,1,9,L,,4,,,,,,,
,,,,,,,,1,elise,2024-09-24_15h33.10.570,Motor_Task,2023.2.2,MacIntel,59.88023952,148.2001,148.7988,1,1,0.5869,,12,9,129,9,1,10,I,,1,,,,,,,
,,,,,,,,1,elise,2024-09-24_15h33.10.570,Motor_Task,2023.2.2,MacIntel,59.88023952,148.7991,149.3494,2,1,0.5452,,13,0,130,0,1,1,M,,2,,,,,,,
,,,,,,,,1,elise,2024-09-24_15h33.10.570,Motor_Task,2023.2.2,MacIntel,59.88023952,149.3497,149.8489,3,1,0.4873,,13,1,131,1,1,2,R,,3,,,,,,,
,,,,,,,,1,elise,2024-09-24_15h33.10.570,Motor_Task,2023.2.2,MacIntel,59.88023952,149.8494,150.3663,1,0,0.5022,,13,2,132,2,1,3,M,,2,,,,,,,
,,,,,,,,1,elise,2024-09-24_15h33.10.570,Motor_Task,2023.2.2,MacIntel,59.88023952,150.3667,151.4488,3,1,1.0714,,13,3,133,3,1,4,R,,3,,,,,,,
,,,,,,,,1,elise,2024-09-24_15h33.10.570,Motor_Task,2023.2.2,MacIntel,59.88023952,151.4493,152.0996,1,1,0.637,,13,4,134,4,1,5,I,,1,,,,,,,
,,,,,,,,1,elise,2024-09-24_15h33.10.570,Motor_Task,2023.2.2,MacIntel,59.88023952,152.1001,152.8331,1,1,0.7202,,13,5,135,5,1,6,I,,1,,,,,,,
,,,,,,,,1,elise,2024-09-24_15h33.10.570,Motor_Task,2023.2.2,MacIntel,59.88023952,152.8336,153.3829,3,1,0.5487,,13,6,136,6,1,7,R,,3,,,,,,,
,,,,,,,,1,elise,2024-09-24_15h33.10.570,Motor_Task,2023.2.2,MacIntel,59.88023952,153.3832,153.8831,2,1,0.4874,,13,7,137,7,1,8,M,,2,,,,,,,
,,,,,,,,1,elise,2024-09-24_15h33.10.570,Motor_Task,2023.2.2,MacIntel,59.88023952,153.8835,154.4164,4,1,0.5236,,13,8,138,8,1,9,L,,4,,,,,,,
,,,,,,,,1,elise,2024-09-24_15h33.10.570,Motor_Task,2023.2.2,MacIntel,59.88023952,154.4169,155.2331,1,1,0.8056,,13,9,139,9,1,10,I,,1,,,,,,,
,,,,,,,,1,elise,2024-09-24_15h33.10.570,Motor_Task,2023.2.2,MacIntel,59.88023952,155.2337,155.7327,3,0,0.4872,,14,0,140,0,1,1,M,,2,,,,,,,
,,,,,,,,1,elise,2024-09-24_15h33.10.570,Motor_Task,2023.2.2,MacIntel,59.88023952,155.7331,156.9331,3,1,1.1869,,14,1,141,1,1,2,R,,3,,,,,,,
,,,,,,,,1,elise,2024-09-24_15h33.10.570,Motor_Task,2023.2.2,MacIntel,59.88023952,156.9335,157.6321,2,1,0.6893,,14,2,142,2,1,3,M,,2,,,,,,,
,,,,,,,,1,elise,2024-09-24_15h33.10.570,Motor_Task,2023.2.2,MacIntel,59.88023952,157.6325,158.4831,3,1,0.8381,,14,3,143,3,1,4,R,,3,,,,,,,
,,,,,,,,1,elise,2024-09-24_15h33.10.570,Motor_Task,2023.2.2,MacIntel,59.88023952,158.4835,159.0828,1,1,0.5903,,14,4,144,4,1,5,I,,1,,,,,,,
,,,,,,,,1,elise,2024-09-24_15h33.10.570,Motor_Task,2023.2.2,MacIntel,59.88023952,159.0831,159.6997,1,1,0.6045,,14,5,145,5,1,6,I,,1,,,,,,,
,,,,,,,,1,elise,2024-09-24_15h33.10.570,Motor_Task,2023.2.2,MacIntel,59.88023952,159.7002,160.2832,3,1,0.5701,,14,6,146,6,1,7,R,,3,,,,,,,
,,,,,,,,1,elise,2024-09-24_15h33.10.570,Motor_Task,2023.2.2,MacIntel,59.88023952,160.2836,160.783,2,1,0.4922,,14,7,147,7,1,8,M,,2,,,,,,,
,,,,,,,,1,elise,2024-09-24_15h33.10.570,Motor_Task,2023.2.2,MacIntel,59.88023952,160.7835,161.332,4,1,0.5359,,14,8,148,8,1,9,L,,4,,,,,,,
,,,,,,,,1,elise,2024-09-24_15h33.10.570,Motor_Task,2023.2.2,MacIntel,59.88023952,161.3324,162.0165,1,1,0.6712,,14,9,149,9,1,10,I,,1,,,,,,,
,,,,,,,,1,elise,2024-09-24_15h33.10.570,Motor_Task,2023.2.2,MacIntel,59.88023952,162.0168,162.7653,2,1,0.7369,,15,0,150,0,1,1,M,,2,,,,,,,
,,,,,,,,1,elise,2024-09-24_15h33.10.570,Motor_Task,2023.2.2,MacIntel,59.88023952,162.7657,163.3164,3,1,0.5382,,15,1,151,1,1,2,R,,3,,,,,,,
,,,,,,,,1,elise,2024-09-24_15h33.10.570,Motor_Task,2023.2.2,MacIntel,59.88023952,163.3168,163.9498,2,1,0.6213,,15,2,152,2,1,3,M,,2,,,,,,,
,,,,,,,,1,elise,2024-09-24_15h33.10.570,Motor_Task,2023.2.2,MacIntel,59.88023952,163.9502,164.4661,3,1,0.5018,,15,3,153,3,1,4,R,,3,,,,,,,
,,,,,,,,1,elise,2024-09-24_15h33.10.570,Motor_Task,2023.2.2,MacIntel,59.88023952,164.4663,165.0331,1,1,0.5577,,15,4,154,4,1,5,I,,1,,,,,,,
,,,,,,,,1,elise,2024-09-24_15h33.10.570,Motor_Task,2023.2.2,MacIntel,59.88023952,165.0334,165.5997,1,1,0.5534,,15,5,155,5,1,6,I,,1,,,,,,,
,,,,,,,,1,elise,2024-09-24_15h33.10.570,Motor_Task,2023.2.2,MacIntel,59.88023952,165.6002,166.2164,3,1,0.6058,,15,6,156,6,1,7,R,,3,,,,,,,
,,,,,,,,1,elise,2024-09-24_15h33.10.570,Motor_Task,2023.2.2,MacIntel,59.88023952,166.2169,166.7664,2,1,0.5372,,15,7,157,7,1,8,M,,2,,,,,,,
,,,,,,,,1,elise,2024-09-24_15h33.10.570,Motor_Task,2023.2.2,MacIntel,59.88023952,166.7668,167.4654,4,1,0.6855,,15,8,158,8,1,9,L,,4,,,,,,,
,,,,,,,,1,elise,2024-09-24_15h33.10.570,Motor_Task,2023.2.2,MacIntel,59.88023952,167.4658,168.1828,1,1,0.7057,,15,9,159,9,1,10,I,,1,,,,,,,
,,,,,,,,1,elise,2024-09-24_15h33.10.570,Motor_Task,2023.2.2,MacIntel,59.88023952,168.1829,168.682,2,1,0.4979,,16,0,160,0,1,1,M,,2,,,,,,,
,,,,,,,,1,elise,2024-09-24_15h33.10.570,Motor_Task,2023.2.2,MacIntel,59.88023952,168.6824,169.1494,3,1,0.466,,16,1,161,1,1,2,R,,3,,,,,,,
,,,,,,,,1,elise,2024-09-24_15h33.10.570,Motor_Task,2023.2.2,MacIntel,59.88023952,169.1498,169.6663,2,1,0.5044,,16,2,162,2,1,3,M,,2,,,,,,,
,,,,,,,,1,elise,2024-09-24_15h33.10.570,Motor_Task,2023.2.2,MacIntel,59.88023952,169.6667,170.1997,3,1,0.5238,,16,3,163,3,1,4,R,,3,,,,,,,
,,,,,,,,1,elise,2024-09-24_15h33.10.570,Motor_Task,2023.2.2,MacIntel,59.88023952,170.2001,170.7824,1,1,0.5684,,16,4,164,4,1,5,I,,1,,,,,,,
,,,,,,,,1,elise,2024-09-24_15h33.10.570,Motor_Task,2023.2.2,MacIntel,59.88023952,170.7827,171.3161,1,1,0.5327,,16,5,165,5,1,6,I,,1,,,,,,,
,,,,,,,,1,elise,2024-09-24_15h33.10.570,Motor_Task,2023.2.2,MacIntel,59.88023952,171.3164,171.8495,3,1,0.5323,,16,6,166,6,1,7,R,,3,,,,,,,
,,,,,,,,1,elise,2024-09-24_15h33.10.570,Motor_Task,2023.2.2,MacIntel,59.88023952,171.8498,172.3658,2,1,0.5146,,16,7,167,7,1,8,M,,2,,,,,,,
,,,,,,,,1,elise,2024-09-24_15h33.10.570,Motor_Task,2023.2.2,MacIntel,59.88023952,172.3662,172.9321,4,1,0.5595,,16,8,168,8,1,9,L,,4,,,,,,,
,,,,,,,,1,elise,2024-09-24_15h33.10.570,Motor_Task,2023.2.2,MacIntel,59.88023952,172.9325,173.4664,1,1,0.5207,,16,9,169,9,1,10,I,,1,,,,,,,
,,,,,,,,1,elise,2024-09-24_15h33.10.570,Motor_Task,2023.2.2,MacIntel,59.88023952,173.4669,174.033,2,1,0.5534,,17,0,170,0,1,1,M,,2,,,,,,,
,,,,,,,,1,elise,2024-09-24_15h33.10.570,Motor_Task,2023.2.2,MacIntel,59.88023952,174.0334,174.4997,3,1,0.4535,,17,1,171,1,1,2,R,,3,,,,,,,
,,,,,,,,1,elise,2024-09-24_15h33.10.570,Motor_Task,2023.2.2,MacIntel,59.88023952,174.5,175.0819,2,1,0.5701,,17,2,172,2,1,3,M,,2,,,,,,,
,,,,,,,,1,elise,2024-09-24_15h33.10.570,Motor_Task,2023.2.2,MacIntel,59.88023952,175.0822,175.5996,3,1,0.5165,,17,3,173,3,1,4,R,,3,,,,,,,
,,,,,,,,1,elise,2024-09-24_15h33.10.570,Motor_Task,2023.2.2,MacIntel,59.88023952,175.5999,176.1663,1,1,0.5649,,17,4,174,4,1,5,I,,1,,,,,,,
,,,,,,,,1,elise,2024-09-24_15h33.10.570,Motor_Task,2023.2.2,MacIntel,59.88023952,176.1666,176.733,1,1,0.5636,,17,5,175,5,1,6,I,,1,,,,,,,
,,,,,,,,1,elise,2024-09-24_15h33.10.570,Motor_Task,2023.2.2,MacIntel,59.88023952,176.7335,177.2998,3,1,0.5588,,17,6,176,6,1,7,R,,3,,,,,,,
,,,,,,,,1,elise,2024-09-24_15h33.10.570,Motor_Task,2023.2.2,MacIntel,59.88023952,177.3002,177.783,2,1,0.4798,,17,7,177,7,1,8,M,,2,,,,,,,
,,,,,,,,1,elise,2024-09-24_15h33.10.570,Motor_Task,2023.2.2,MacIntel,59.88023952,177.7834,178.4163,4,1,0.6202,,17,8,178,8,1,9,L,,4,,,,,,,
,,,,,,,,1,elise,2024-09-24_15h33.10.570,Motor_Task,2023.2.2,MacIntel,59.88023952,178.4167,178.8997,1,1,0.47,,17,9,179,9,1,10,I,,1,,,,,,,
,,,,,,,,1,elise,2024-09-24_15h33.10.570,Motor_Task,2023.2.2,MacIntel,59.88023952,178.9001,179.4164,2,1,0.5038,,18,0,180,0,1,1,M,,2,,,,,,,
,,,,,,,,1,elise,2024-09-24_15h33.10.570,Motor_Task,2023.2.2,MacIntel,59.88023952,179.4167,179.8662,3,1,0.4405,,18,1,181,1,1,2,R,,3,,,,,,,
,,,,,,,,1,elise,2024-09-24_15h33.10.570,Motor_Task,2023.2.2,MacIntel,59.88023952,179.8667,180.3496,2,1,0.473,,18,2,182,2,1,3,M,,2,,,,,,,
,,,,,,,,1,elise,2024-09-24_15h33.10.570,Motor_Task,2023.2.2,MacIntel,59.88023952,180.3501,180.8997,3,1,0.5369,,18,3,183,3,1,4,R,,3,,,,,,,
,,,,,,,,1,elise,2024-09-24_15h33.10.570,Motor_Task,2023.2.2,MacIntel,59.88023952,180.9001,181.5164,1,1,0.6036,,18,4,184,4,1,5,I,,1,,,,,,,
,,,,,,,,1,elise,2024-09-24_15h33.10.570,Motor_Task,2023.2.2,MacIntel,59.88023952,181.5168,182.0496,1,1,0.5248,,18,5,185,5,1,6,I,,1,,,,,,,
,,,,,,,,1,elise,2024-09-24_15h33.10.570,Motor_Task,2023.2.2,MacIntel,59.88023952,182.0501,182.6164,3,1,0.5582,,18,6,186,6,1,7,R,,3,,,,,,,
,,,,,,,,1,elise,2024-09-24_15h33.10.570,Motor_Task,2023.2.2,MacIntel,59.88023952,182.6168,183.1163,2,1,0.4865,,18,7,187,7,1,8,M,,2,,,,,,,
,,,,,,,,1,elise,2024-09-24_15h33.10.570,Motor_Task,2023.2.2,MacIntel,59.88023952,183.1167,183.6161,4,1,0.4877,,18,8,188,8,1,9,L,,4,,,,,,,
,,,,,,,,1,elise,2024-09-24_15h33.10.570,Motor_Task,2023.2.2,MacIntel,59.88023952,183.6164,184.1664,1,1,0.5365,,18,9,189,9,1,10,I,,1,,,,,,,
,,,,,,,,1,elise,2024-09-24_15h33.10.570,Motor_Task,2023.2.2,MacIntel,59.88023952,184.1668,184.7656,2,1,0.5855,,19,0,190,0,1,1,M,,2,,,,,,,
,,,,,,,,1,elise,2024-09-24_15h33.10.570,Motor_Task,2023.2.2,MacIntel,59.88023952,184.7662,185.333,3,1,0.554,,19,1,191,1,1,2,R,,3,,,,,,,
,,,,,,,,1,elise,2024-09-24_15h33.10.570,Motor_Task,2023.2.2,MacIntel,59.88023952,185.3335,185.8828,2,1,0.5389,,19,2,192,2,1,3,M,,2,,,,,,,
,,,,,,,,1,elise,2024-09-24_15h33.10.570,Motor_Task,2023.2.2,MacIntel,59.88023952,185.8831,186.4496,3,1,0.5645,,19,3,193,3,1,4,R,,3,,,,,,,
,,,,,,,,1,elise,2024-09-24_15h33.10.570,Motor_Task,2023.2.2,MacIntel,59.88023952,186.4499,187.0995,1,1,0.6489,,19,4,194,4,1,5,I,,1,,,,,,,
,,,,,,,,1,elise,2024-09-24_15h33.10.570,Motor_Task,2023.2.2,MacIntel,59.88023952,187.0999,187.6486,1,1,0.5479,,19,5,195,5,1,6,I,,1,,,,,,,
,,,,,,,,1,elise,2024-09-24_15h33.10.570,Motor_Task,2023.2.2,MacIntel,59.88023952,187.6488,188.1497,3,1,0.4881,,19,6,196,6,1,7,R,,3,,,,,,,
,,,,,,,,1,elise,2024-09-24_15h33.10.570,Motor_Task,2023.2.2,MacIntel,59.88023952,188.1501,188.6662,2,1,0.5031,,19,7,197,7,1,8,M,,2,,,,,,,
,,,,,,,,1,elise,2024-09-24_15h33.10.570,Motor_Task,2023.2.2,MacIntel,59.88023952,188.6666,189.5329,4,1,0.8535,,19,8,198,8,1,9,L,,4,,,,,,,
,,,,,,,,1,elise,2024-09-24_15h33.10.570,Motor_Task,2023.2.2,MacIntel,59.88023952,189.5334,190.082,1,1,0.5364,,19,9,199,9,1,10,I,,1,,,,,,,
,,,,,,,,1,elise,2024-09-24_15h33.10.570,Motor_Task,2023.2.2,MacIntel,59.88023952,190.0919,190.615,1,1,0.5206,,,,,,,6,I,,1,0,0,0,5,1,,
,,,,,,,,1,elise,2024-09-24_15h33.10.570,Motor_Task,2023.2.2,MacIntel,59.88023952,190.6152,191.183,1,1,0.555,,,,,,,10,I,,1,0,1,1,9,1,,
,,,,,,,,1,elise,2024-09-24_15h33.10.570,Motor_Task,2023.2.2,MacIntel,59.88023952,191.1835,191.732,2,1,0.5375,,,,,,,3,M,,2,0,2,2,2,1,,
,,,,,,,,1,elise,2024-09-24_15h33.10.570,Motor_Task,2023.2.2,MacIntel,59.88023952,191.7323,192.2993,2,1,0.5573,,,,,,,1,M,,2,0,3,3,0,1,,
,,,,,,,,1,elise,2024-09-24_15h33.10.570,Motor_Task,2023.2.2,MacIntel,59.88023952,192.2996,192.8496,3,1,0.5375,,,,,,,2,R,,3,0,4,4,1,1,,
,,,,,,,,1,elise,2024-09-24_15h33.10.570,Motor_Task,2023.2.2,MacIntel,59.88023952,192.8501,193.4329,3,1,0.5753,,,,,,,4,R,,3,0,5,5,3,1,,
,,,,,,,,1,elise,2024-09-24_15h33.10.570,Motor_Task,2023.2.2,MacIntel,59.88023952,193.4334,194.0162,3,1,0.5699,,,,,,,7,R,,3,0,6,6,6,1,,
,,,,,,,,1,elise,2024-09-24_15h33.10.570,Motor_Task,2023.2.2,MacIntel,59.88023952,194.0167,194.616,2,1,0.5983,,,,,,,8,M,,2,0,7,7,7,1,,
,,,,,,,,1,elise,2024-09-24_15h33.10.570,Motor_Task,2023.2.2,MacIntel,59.88023952,194.6163,195.2493,1,1,0.631,,,,,,,5,I,,1,0,8,8,4,1,,
,,,,,,,,1,elise,2024-09-24_15h33.10.570,Motor_Task,2023.2.2,MacIntel,59.88023952,195.2497,195.8489,3,0,0.5864,,,,,,,9,L,,4,0,9,9,8,1,,
,,,,,,,,1,elise,2024-09-24_15h33.10.570,Motor_Task,2023.2.2,MacIntel,59.88023952,195.8493,196.8495,3,1,0.9877,,,,,,,7,R,,3,1,0,10,6,1,,
,,,,,,,,1,elise,2024-09-24_15h33.10.570,Motor_Task,2023.2.2,MacIntel,59.88023952,196.8499,197.4997,2,1,0.6356,,,,,,,8,M,,2,1,1,11,7,1,,
,,,,,,,,1,elise,2024-09-24_15h33.10.570,Motor_Task,2023.2.2,MacIntel,59.88023952,197.5001,197.9995,1,1,0.4986,,,,,,,6,I,,1,1,2,12,5,1,,
,,,,,,,,1,elise,2024-09-24_15h33.10.570,Motor_Task,2023.2.2,MacIntel,59.88023952,197.9998,198.683,1,1,0.6711,,,,,,,10,I,,1,1,3,13,9,1,,
,,,,,,,,1,elise,2024-09-24_15h33.10.570,Motor_Task,2023.2.2,MacIntel,59.88023952,198.6834,199.3164,2,1,0.6325,,,,,,,3,M,,2,1,4,14,2,1,,
,,,,,,,,1,elise,2024-09-24_15h33.10.570,Motor_Task,2023.2.2,MacIntel,59.88023952,199.3168,199.8496,2,1,0.5199,,,,,,,1,M,,2,1,5,15,0,1,,
,,,,,,,,1,elise,2024-09-24_15h33.10.570,Motor_Task,2023.2.2,MacIntel,59.88023952,199.8501,200.4494,3,1,0.5989,,,,,,,2,R,,3,1,6,16,1,1,,
,,,,,,,,1,elise,2024-09-24_15h33.10.570,Motor_Task,2023.2.2,MacIntel,59.88023952,200.4497,201.1662,1,1,0.7147,,,,,,,5,I,,1,1,7,17,4,1,,
,,,,,,,,1,elise,2024-09-24_15h33.10.570,Motor_Task,2023.2.2,MacIntel,59.88023952,201.1665,201.8162,4,1,0.6431,,,,,,,9,L,,4,1,8,18,8,1,,
,,,,,,,,1,elise,2024-09-24_15h33.10.570,Motor_Task,2023.2.2,MacIntel,59.88023952,201.8166,202.532,3,1,0.7026,,,,,,,4,R,,3,1,9,19,3,1,,
,,,,,,,,1,elise,2024-09-24_15h33.10.570,Motor_Task,2023.2.2,MacIntel,59.88023952,202.5323,203.1162,2,1,0.5714,,,,,,,8,M,,2,2,0,20,7,1,,
,,,,,,,,1,elise,2024-09-24_15h33.10.570,Motor_Task,2023.2.2,MacIntel,59.88023952,203.1166,203.7153,2,1,0.5874,,,,,,,1,M,,2,2,1,21,0,1,,
,,,,,,,,1,elise,2024-09-24_15h33.10.570,Motor_Task,2023.2.2,MacIntel,59.88023952,203.7156,204.5322,3,1,0.808,,,,,,,7,R,,3,2,2,22,6,1,,
,,,,,,,,1,elise,2024-09-24_15h33.10.570,Motor_Task,2023.2.2,MacIntel,59.88023952,204.5327,205.2494,1,1,0.7161,,,,,,,6,I,,1,2,3,23,5,1,,
,,,,,,,,1,elise,2024-09-24_15h33.10.570,Motor_Task,2023.2.2,MacIntel,59.88023952,205.2499,205.8662,1,1,0.6028,,,,,,,5,I,,1,2,4,24,4,1,,
,,,,,,,,1,elise,2024-09-24_15h33.10.570,Motor_Task,2023.2.2,MacIntel,59.88023952,205.8667,206.4663,3,1,0.5872,,,,,,,4,R,,3,2,5,25,3,1,,
,,,,,,,,1,elise,2024-09-24_15h33.10.570,Motor_Task,2023.2.2,MacIntel,59.88023952,206.4668,207.2663,4,1,0.7857,,,,,,,9,L,,4,2,6,26,8,1,,
,,,,,,,,1,elise,2024-09-24_15h33.10.570,Motor_Task,2023.2.2,MacIntel,59.88023952,207.2668,208.0496,3,1,0.7702,,,,,,,2,R,,3,2,7,27,1,1,,
,,,,,,,,1,elise,2024-09-24_15h33.10.570,Motor_Task,2023.2.2,MacIntel,59.88023952,208.0501,208.582,2,1,0.5227,,,,,,,3,M,,2,2,8,28,2,1,,
,,,,,,,,1,elise,2024-09-24_15h33.10.570,Motor_Task,2023.2.2,MacIntel,59.88023952,208.5825,209.0984,1,1,0.5036,,,,,,,10,I,,1,2,9,29,9,1,,
,,,,,,,,1,elise,2024-09-24_15h33.10.570,Motor_Task,2023.2.2,MacIntel,59.88023952,209.0988,209.6662,2,1,0.5549,,,,,,,8,M,,2,3,0,30,7,1,,
,,,,,,,,1,elise,2024-09-24_15h33.10.570,Motor_Task,2023.2.2,MacIntel,59.88023952,209.6666,210.4328,3,1,0.7534,,,,,,,7,R,,3,3,1,31,6,1,,
,,,,,,,,1,elise,2024-09-24_15h33.10.570,Motor_Task,2023.2.2,MacIntel,59.88023952,210.4333,211.0653,4,1,0.6203,,,,,,,9,L,,4,3,2,32,8,1,,
,,,,,,,,1,elise,2024-09-24_15h33.10.570,Motor_Task,2023.2.2,MacIntel,59.88023952,211.0656,211.6663,1,1,0.5895,,,,,,,5,I,,1,3,3,33,4,1,,
,,,,,,,,1,elise,2024-09-24_15h33.10.570,Motor_Task,2023.2.2,MacIntel,59.88023952,211.6667,212.1992,2,1,0.52,,,,,,,3,M,,2,3,4,34,2,1,,
,,,,,,,,1,elise,2024-09-24_15h33.10.570,Motor_Task,2023.2.2,MacIntel,59.88023952,212.1996,212.7328,3,1,0.5203,,,,,,,2,R,,3,3,5,35,1,1,,
,,,,,,,,1,elise,2024-09-24_15h33.10.570,Motor_Task,2023.2.2,MacIntel,59.88023952,212.7331,213.4328,1,1,0.6985,,,,,,,10,I,,1,3,6,36,9,1,,
,,,,,,,,1,elise,2024-09-24_15h33.10.570,Motor_Task,2023.2.2,MacIntel,59.88023952,213.4331,214.2828,2,1,0.8405,,,,,,,1,M,,2,3,7,37,0,1,,
,,,,,,,,1,elise,2024-09-24_15h33.10.570,Motor_Task,2023.2.2,MacIntel,59.88023952,214.2833,214.7988,3,1,0.5052,,,,,,,4,R,,3,3,8,38,3,1,,
,,,,,,,,1,elise,2024-09-24_15h33.10.570,Motor_Task,2023.2.2,MacIntel,59.88023952,214.7993,215.4498,1,1,0.6421,,,,,,,6,I,,1,3,9,39,5,1,,
,,,,,,,,1,elise,2024-09-24_15h33.10.570,Motor_Task,2023.2.2,MacIntel,59.88023952,215.4504,216.1163,1,1,0.6531,,,,,,,5,I,,1,4,0,40,4,1,,
,,,,,,,,1,elise,2024-09-24_15h33.10.570,Motor_Task,2023.2.2,MacIntel,59.88023952,216.1167,216.6829,2,1,0.5541,,,,,,,3,M,,2,4,1,41,2,1,,
,,,,,,,,1,elise,2024-09-24_15h33.10.570,Motor_Task,2023.2.2,MacIntel,59.88023952,216.6834,217.3666,2,1,0.6826,,,,,,,8,M,,2,4,2,42,7,1,,
,,,,,,,,1,elise,2024-09-24_15h33.10.570,Motor_Task,2023.2.2,MacIntel,59.88023952,217.367,217.9828,3,1,0.6139,,,,,,,4,R,,3,4,3,43,3,1,,
,,,,,,,,1,elise,2024-09-24_15h33.10.570,Motor_Task,2023.2.2,MacIntel,59.88023952,217.9833,218.5828,1,1,0.5982,,,,,,,6,I,,1,4,4,44,5,1,,
,,,,,,,,1,elise,2024-09-24_15h33.10.570,Motor_Task,2023.2.2,MacIntel,59.88023952,218.5833,219.2987,1,1,0.7042,,,,,,,10,I,,1,4,5,45,9,1,,
,,,,,,,,1,elise,2024-09-24_15h33.10.570,Motor_Task,2023.2.2,MacIntel,59.88023952,219.299,219.8989,3,0,0.5885,,,,,,,9,L,,4,4,6,46,8,1,,
,,,,,,,,1,elise,2024-09-24_15h33.10.570,Motor_Task,2023.2.2,MacIntel,59.88023952,219.8994,220.7662,3,1,0.8539,,,,,,,7,R,,3,4,7,47,6,1,,
,,,,,,,,1,elise,2024-09-24_15h33.10.570,Motor_Task,2023.2.2,MacIntel,59.88023952,220.7667,221.3828,3,1,0.6015,,,,,,,2,R,,3,4,8,48,1,1,,
,,,,,,,,1,elise,2024-09-24_15h33.10.570,Motor_Task,2023.2.2,MacIntel,59.88023952,221.3832,222.0162,2,1,0.6197,,,,,,,1,M,,2,4,9,49,0,1,,
,,,,,,,,1,elise,2024-09-24_15h33.10.570,Motor_Task,2023.2.2,MacIntel,59.88023952,,,,,,,,,,,,,,,,,,,,,222.0179,226.0168