Trigger.started,Trigger.stopped,key_resp_4.keys,key_resp_4.rt,key_resp_4.duration,mouse.x,mouse.y,mouse.leftButton,mouse.midButton,mouse.rightButton,Session,Subject,date,expName,psychopyVersion,OS,frameRate,complex_block.started,complex_block.stopped,key_resp.keys,key_resp.corr,key_resp.rt,key_resp.duration,complex_block_loop.thisRepN,complex_block_loop.thisTrialN,complex_block_loop.thisN,complex_block_loop.thisIndex,complex_block_loop.ran,trial,finger,markerPos,correctResp,new_block_loop.thisRepN,new_block_loop.thisTrialN,new_block_loop.thisN,new_block_loop.thisIndex,new_block_loop.ran,endBuffer.started,endBuffer.stopped
0.0003,121.4265,space,121.3968,,-0.415767483,0.162886593,0,0,0,1,erin,2024-09-24_15h32.13.348,Motor_Task,2023.2.2,MacIntel,57.47126437,,,,,,,,,,,,,,,,,,,,,,
,,,,,,,,,,1,erin,2024-09-24_15h32.13.348,Motor_Task,2023.2.2,MacIntel,57.47126437,121.4439,122.3439,2,1,0.8906,,0,0,0,0,1,1,M,,2,,,,,,,
,,,,,,,,,,1,erin,2024-09-24_15h32.13.348,Motor_Task,2023.2.2,MacIntel,57.47126437,122.3445,122.9764,3,1,0.6233,,0,1,1,1,1,2,R,,3,,,,,,,
,,,,,,,,,,1,erin,2024-09-24_15h32.13.348,Motor_Task,2023.2.2,MacIntel,57.47126437,122.9767,123.7098,2,1,0.7251,,0,2,2,2,1,3,M,,2,,,,,,,
,,,,,,,,,,1,erin,2024-09-24_15h32.13.348,Motor_Task,2023.2.2,MacIntel,57.47126437,123.7101,124.3602,3,1,0.6414,,0,3,3,3,1,4,R,,3,,,,,,,
,,,,,,,,,,1,erin,2024-09-24_15h32.13.348,Motor_Task,2023.2.2,MacIntel,57.47126437,124.3605,125.0435,1,1,0.6748,,0,4,4,4,1,5,I,,1,,,,,,,
,,,,,,,,,,1,erin,2024-09-24_15h32.13.348,Motor_Task,2023.2.2,MacIntel,57.47126437,125.0438,125.6938,1,1,0.6403,,0,5,5,5,1,6,I,,1,,,,,,,
,,,,,,,,,,1,erin,2024-09-24_15h32.13.348,Motor_Task,2023.2.2,MacIntel,57.47126437,125.6941,126.4433,3,1,0.7469,,0,6,6,6,1,7,R,,3,,,,,,,
,,,,,,,,,,1,erin,2024-09-24_15h32.13.348,Motor_Task,2023.2.2,MacIntel,57.47126437,126.4435,127.1103,2,1,0.6569,,0,7,7,7,1,8,M,,2,,,,,,,
,,,,,,,,,,1,erin,2024-09-24_15h32.13.348,Motor_Task,2023.2.2,MacIntel,57.47126437,127.1107,127.8592,4,1,0.7409,,0,8,8,8,1,9,L,,4,,,,,,,
,,,,,,,,,,1,erin,2024-09-24_15h32.13.348,Motor_Task,2023.2.2,MacIntel,57.47126437,127.8595,128.5433,1,1,0.6744,,0,9,9,9,1,10,I,,1,,,,,,,
,,,,,,,,,,1,erin,2024-09-24_15h32.13.348,Motor_Task,2023.2.2,MacIntel,57.47126437,128.5435,129.1102,2,1,0.5617,,1,0,10,0,1,1,M,,2,,,,,,,
,,,,,,,,,,1,erin,2024-09-24_15h32.13.348,Motor_Task,2023.2.2,MacIntel,57.47126437,129.1104,129.7258,3,1,0.6149,,1,1,11,1,1,2,R,,3,,,,,,,
,,,,,,,,,,1,erin,2024-09-24_15h32.13.348,Motor_Task,2023.2.2,MacIntel,57.47126437,129.726,130.4266,2,1,0.6978,,1,2,12,2,1,3,M,,2,,,,,,,
,,,,,,,,,,1,erin,2024-09-24_15h32.13.348,Motor_Task,2023.2.2,MacIntel,57.47126437,130.4269,131.0593,3,1,0.6321,,1,3,13,3,1,4,R,,3,,,,,,,
,,,,,,,,,,1,erin,2024-09-24_15h32.13.348,Motor_Task,2023.2.2,MacIntel,57.47126437,131.0596,131.7101,1,1,0.6417,,1,4,14,4,1,5,I,,1,,,,,,,
,,,,,,,,,,1,erin,2024-09-24_15h32.13.348,Motor_Task,2023.2.2,MacIntel,57.47126437,131.7104,132.3269,1,1,0.6121,,1,5,15,5,1,6,I,,1,,,,,,,
,,,,,,,,,,1,erin,2024-09-24_15h32.13.348,Motor_Task,2023.2.2,MacIntel,57.47126437,132.3273,133.0268,3,1,0.6932,,1,6,16,6,1,7,R,,3,,,,,,,
,,,,,,,,,,1,erin,2024-09-24_15h32.13.348,Motor_Task,2023.2.2,MacIntel,57.47126437,133.027,133.6473,2,1,0.6082,,1,7,17,7,1,8,M,,2,,,,,,,
,,,,,,,,,,1,erin,2024-09-24_15h32.13.348,Motor_Task,2023.2.2,MacIntel,57.47126437,133.6476,134.3436,4,1,0.6875,,1,8,18,8,1,9,L,,4,,,,,,,
,,,,,,,,,,1,erin,2024-09-24_15h32.13.348,Motor_Task,2023.2.2,MacIntel,57.47126437,134.344,135.4424,1,1,1.0982,,1,9,19,9,1,10,I,,1,,,,,,,
,,,,,,,,,,1,erin,2024-09-24_15h32.13.348,Motor_Task,2023.2.2,MacIntel,57.47126437,135.4427,136.0758,2,1,0.6248,,2,0,20,0,1,1,M,,2,,,,,,,
,,,,,,,,,,1,erin,2024-09-24_15h32.13.348,Motor_Task,2023.2.2,MacIntel,57.47126437,136.0762,136.6935,3,1,0.6088,,2,1,21,1,1,2,R,,3,,,,,,,
,,,,,,,,,,1,erin,2024-09-24_15h32.13.348,Motor_Task,2023.2.2,MacIntel,57.47126437,136.6938,137.5269,2,1,0.827,,2,2,22,2,1,3,M,,2,,,,,,,
,,,,,,,,,,1,erin,2024-09-24_15h32.13.348,Motor_Task,2023.2.2,MacIntel,57.47126437,137.5272,138.4434,3,1,0.9063,,2,3,23,3,1,4,R,,3,,,,,,,
,,,,,,,,,,1,erin,2024-09-24_15h32.13.348,Motor_Task,2023.2.2,MacIntel,57.47126437,138.4436,139.1101,1,1,0.6576,,2,4,24,4,1,5,I,,1,,,,,,,
,,,,,,,,,,1,erin,2024-09-24_15h32.13.348,Motor_Task,2023.2.2,MacIntel,57.47126437,139.1104,139.8423,1,1,0.7279,,2,5,25,5,1,6,I,,1,,,,,,,
,,,,,,,,,,1,erin,2024-09-24_15h32.13.348,Motor_Task,2023.2.2,MacIntel,57.47126437,139.8424,140.5424,3,1,0.6941,,2,6,26,6,1,7,R,,3,,,,,,,
,,,,,,,,,,1,erin,2024-09-24_15h32.13.348,Motor_Task,2023.2.2,MacIntel,57.47126437,140.5427,141.21,2,1,0.6583,,2,7,27,7,1,8,M,,2,,,,,,,
,,,,,,,,,,1,erin,2024-09-24_15h32.13.348,Motor_Task,2023.2.2,MacIntel,57.47126437,141.2103,142.2433,4,1,1.0246,,2,8,28,8,1,9,L,,4,,,,,,,
,,,,,,,,,,1,erin,2024-09-24_15h32.13.348,Motor_Task,2023.2.2,MacIntel,57.47126437,142.2435,142.9099,1,1,0.6575,,2,9,29,9,1,10,I,,1,,,,,,,
,,,,,,,,,,1,erin,2024-09-24_15h32.13.348,Motor_Task,2023.2.2,MacIntel,57.47126437,142.9102,143.4933,2,1,0.5741,,3,0,30,0,1,1,M,,2,,,,,,,
,,,,,,,,,,1,erin,2024-09-24_15h32.13.348,Motor_Task,2023.2.2,MacIntel,57.47126437,143.4936,144.0929,3,1,0.5936,,3,1,31,1,1,2,R,,3,,,,,,,
,,,,,,,,,,1,erin,2024-09-24_15h32.13.348,Motor_Task,2023.2.2,MacIntel,57.47126437,144.0933,144.8094,2,1,0.7102,,3,2,32,2,1,3,M,,2,,,,,,,
,,,,,,,,,,1,erin,2024-09-24_15h32.13.348,Motor_Task,2023.2.2,MacIntel,57.47126437,144.8096,145.4267,3,1,0.6081,,3,3,33,3,1,4,R,,3,,,,,,,
,,,,,,,,,,1,erin,2024-09-24_15h32.13.348,Motor_Task,2023.2.2,MacIntel,57.47126437,145.427,146.0431,1,1,0.6081,,3,4,34,4,1,5,I,,1,,,,,,,
,,,,,,,,,,1,erin,2024-09-24_15h32.13.348,Motor_Task,2023.2.2,MacIntel,57.47126437,146.0434,146.6758,1,1,0.626,,3,5,35,5,1,6,I,,1,,,,,,,
,,,,,,,,,,1,erin,2024-09-24_15h32.13.348,Motor_Task,2023.2.2,MacIntel,57.47126437,146.6761,147.3599,3,1,0.6754,,3,6,36,6,1,7,R,,3,,,,,,,
,,,,,,,,,,1,erin,2024-09-24_15h32.13.348,Motor_Task,2023.2.2,MacIntel,57.47126437,147.3603,147.9256,2,1,0.5575,,3,7,37,7,1,8,M,,2,,,,,,,
,,,,,,,,,,1,erin,2024-09-24_15h32.13.348,Motor_Task,2023.2.2,MacIntel,57.47126437,147.926,148.5765,3,0,0.6422,,3,8,38,8,1,9,L,,4,,,,,,,
,,,,,,,,,,1,erin,2024-09-24_15h32.13.348,Motor_Task,2023.2.2,MacIntel,57.47126437,148.5769,149.3933,1,1,0.8064,,3,9,39,9,1,10,I,,1,,,,,,,
,,,,,,,,,,1,erin,2024-09-24_15h32.13.348,Motor_Task,2023.2.2,MacIntel,57.47126437,149.3936,150.0924,2,1,0.6983,,4,0,40,0,1,1,M,,2,,,,,,,
,,,,,,,,,,1,erin,2024-09-24_15h32.13.348,Motor_Task,2023.2.2,MacIntel,57.47126437,150.0926,150.7265,3,1,0.6234,,4,1,41,1,1,2,R,,3,,,,,,,
,,,,,,,,,,1,erin,2024-09-24_15h32.13.348,Motor_Task,2023.2.2,MacIntel,57.47126437,150.7268,151.4423,2,1,0.7071,,4,2,42,2,1,3,M,,2,,,,,,,
,,,,,,,,,,1,erin,2024-09-24_15h32.13.348,Motor_Task,2023.2.2,MacIntel,57.47126437,151.4426,152.3757,3,1,0.926,,4,3,43,3,1,4,R,,3,,,,,,,
,,,,,,,,,,1,erin,2024-09-24_15h32.13.348,Motor_Task,2023.2.2,MacIntel,57.47126437,152.376,153.0766,1,1,0.692,,4,4,44,4,1,5,I,,1,,,,,,,
,,,,,,,,,,1,erin,2024-09-24_15h32.13.348,Motor_Task,2023.2.2,MacIntel,57.47126437,153.0768,153.7419,1,1,0.6648,,4,5,45,5,1,6,I,,1,,,,,,,
,,,,,,,,,,1,erin,2024-09-24_15h32.13.348,Motor_Task,2023.2.2,MacIntel,57.47126437,153.7421,154.5099,3,1,0.7594,,4,6,46,6,1,7,R,,3,,,,,,,
,,,,,,,,,,1,erin,2024-09-24_15h32.13.348,Motor_Task,2023.2.2,MacIntel,57.47126437,154.5103,155.16,2,1,0.6412,,4,7,47,7,1,8,M,,2,,,,,,,
,,,,,,,,,,1,erin,2024-09-24_15h32.13.348,Motor_Task,2023.2.2,MacIntel,57.47126437,155.1603,155.976,4,1,0.8153,,4,8,48,8,1,9,L,,4,,,,,,,
,,,,,,,,,,1,erin,2024-09-24_15h32.13.348,Motor_Task,2023.2.2,MacIntel,57.47126437,155.9763,156.6597,1,1,0.6747,,4,9,49,9,1,10,I,,1,,,,,,,
,,,,,,,,,,1,erin,2024-09-24_15h32.13.348,Motor_Task,2023.2.2,MacIntel,57.47126437,156.66,157.3589,2,1,0.6975,,5,0,50,0,1,1,M,,2,,,,,,,
,,,,,,,,,,1,erin,2024-09-24_15h32.13.348,Motor_Task,2023.2.2,MacIntel,57.47126437,157.3591,158.1097,3,1,0.7421,,5,1,51,1,1,2,R,,3,,,,,,,
,,,,,,,,,,1,erin,2024-09-24_15h32.13.348,Motor_Task,2023.2.2,MacIntel,57.47126437,158.11,158.8432,2,1,0.7241,,5,2,52,2,1,3,M,,2,,,,,,,
,,,,,,,,,,1,erin,2024-09-24_15h32.13.348,Motor_Task,2023.2.2,MacIntel,57.47126437,158.8436,159.5764,3,1,0.7245,,5,3,53,3,1,4,R,,3,,,,,,,
,,,,,,,,,,1,erin,2024-09-24_15h32.13.348,Motor_Task,2023.2.2,MacIntel,57.47126437,159.5767,160.2759,1,1,0.6909,,5,4,54,4,1,5,I,,1,,,,,,,
,,,,,,,,,,1,erin,2024-09-24_15h32.13.348,Motor_Task,2023.2.2,MacIntel,57.47126437,160.2762,160.9255,1,1,0.6416,,5,5,55,5,1,6,I,,1,,,,,,,
,,,,,,,,,,1,erin,2024-09-24_15h32.13.348,Motor_Task,2023.2.2,MacIntel,57.47126437,160.9257,161.5764,3,1,0.6414,,5,6,56,6,1,7,R,,3,,,,,,,
,,,,,,,,,,1,erin,2024-09-24_15h32.13.348,Motor_Task,2023.2.2,MacIntel,57.47126437,161.577,162.2097,2,1,0.624,,5,7,57,7,1,8,M,,2,,,,,,,
,,,,,,,,,,1,erin,2024-09-24_15h32.13.348,Motor_Task,2023.2.2,MacIntel,57.47126437,162.21,162.893,4,1,0.6741,,5,8,58,8,1,9,L,,4,,,,,,,
,,,,,,,,,,1,erin,2024-09-24_15h32.13.348,Motor_Task,2023.2.2,MacIntel,57.47126437,162.8932,163.5087,1,1,0.6149,,5,9,59,9,1,10,I,,1,,,,,,,
,,,,,,,,,,1,erin,2024-09-24_15h32.13.348,Motor_Task,2023.2.2,MacIntel,57.47126437,163.5089,164.093,2,1,0.5752,,6,0,60,0,1,1,M,,2,,,,,,,
,,,,,,,,,,1,erin,2024-09-24_15h32.13.348,Motor_Task,2023.2.2,MacIntel,57.47126437,164.0933,164.7424,3,1,0.6477,,6,1,61,1,1,2,R,,3,,,,,,,
,,,,,,,,,,1,erin,2024-09-24_15h32.13.348,Motor_Task,2023.2.2,MacIntel,57.47126437,164.7425,165.3929,2,1,0.6411,,6,2,62,2,1,3,M,,2,,,,,,,
,,,,,,,,,,1,erin,2024-09-24_15h32.13.348,Motor_Task,2023.2.2,MacIntel,57.47126437,165.393,166.0597,3,1,0.6583,,6,3,63,3,1,4,R,,3,,,,,,,
,,,,,,,,,,1,erin,2024-09-24_15h32.13.348,Motor_Task,2023.2.2,MacIntel,57.47126437,166.0599,166.6597,1,1,0.5942,,6,4,64,4,1,5,I,,1,,,,,,,
,,,,,,,,,,1,erin,2024-09-24_15h32.13.348,Motor_Task,2023.2.2,MacIntel,57.47126437,166.6601,167.293,1,1,0.6261,,6,5,65,5,1,6,I,,1,,,,,,,
,,,,,,,,,,1,erin,2024-09-24_15h32.13.348,Motor_Task,2023.2.2,MacIntel,57.47126437,167.2935,167.9763,3,1,0.6735,,6,6,66,6,1,7,R,,3,,,,,,,
,,,,,,,,,,1,erin,2024-09-24_15h32.13.348,Motor_Task,2023.2.2,MacIntel,57.47126437,167.9765,168.5264,2,1,0.5401,,6,7,67,7,1,8,M,,2,,,,,,,
,,,,,,,,,,1,erin,2024-09-24_15h32.13.348,Motor_Task,2023.2.2,MacIntel,57.47126437,168.5268,169.1428,4,1,0.6069,,6,8,68,8,1,9,L,,4,,,,,,,
,,,,,,,,,,1,erin,2024-09-24_15h32.13.348,Motor_Task,2023.2.2,MacIntel,57.47126437,169.143,169.7592,1,1,0.6077,,6,9,69,9,1,10,I,,1,,,,,,,
,,,,,,,,,,1,erin,2024-09-24_15h32.13.348,Motor_Task,2023.2.2,MacIntel,57.47126437,169.7594,170.3763,2,1,0.6123,,7,0,70,0,1,1,M,,2,,,,,,,
,,,,,,,,,,1,erin,2024-09-24_15h32.13.348,Motor_Task,2023.2.2,MacIntel,57.47126437,170.3767,171.0263,3,1,0.6447,,7,1,71,1,1,2,R,,3,,,,,,,
,,,,,,,,,,1,erin,2024-09-24_15h32.13.348,Motor_Task,2023.2.2,MacIntel,57.47126437,171.0267,171.7253,2,1,0.6906,,7,2,72,2,1,3,M,,2,,,,,,,
,,,,,,,,,,1,erin,2024-09-24_15h32.13.348,Motor_Task,2023.2.2,MacIntel,57.47126437,171.7257,172.5424,3,1,0.8072,,7,3,73,3,1,4,R,,3,,,,,,,
,,,,,,,,,,1,erin,2024-09-24_15h32.13.348,Motor_Task,2023.2.2,MacIntel,57.47126437,172.5428,173.1923,1,1,0.6417,,7,4,74,4,1,5,I,,1,,,,,,,
,,,,,,,,,,1,erin,2024-09-24_15h32.13.348,Motor_Task,2023.2.2,MacIntel,57.47126437,173.1926,173.8096,1,1,0.6068,,7,5,75,5,1,6,I,,1,,,,,,,
,,,,,,,,,,1,erin,2024-09-24_15h32.13.348,Motor_Task,2023.2.2,MacIntel,57.47126437,173.8099,174.4593,3,1,0.6415,,7,6,76,6,1,7,R,,3,,,,,,,
,,,,,,,,,,1,erin,2024-09-24_15h32.13.348,Motor_Task,2023.2.2,MacIntel,57.47126437,174.4595,175.0428,2,1,0.5745,,7,7,77,7,1,8,M,,2,,,,,,,
,,,,,,,,,,1,erin,2024-09-24_15h32.13.348,Motor_Task,2023.2.2,MacIntel,57.47126437,175.0431,175.7758,4,1,0.7238,,7,8,78,8,1,9,L,,4,,,,,,,
,,,,,,,,,,1,erin,2024-09-24_15h32.13.348,Motor_Task,2023.2.2,MacIntel,57.47126437,175.7761,176.376,1,1,0.5913,,7,9,79,9,1,10,I,,1,,,,,,,
,,,,,,,,,,1,erin,2024-09-24_15h32.13.348,Motor_Task,2023.2.2,MacIntel,57.47126437,176.3762,177.0095,2,1,0.6245,,8,0,80,0,1,1,M,,2,,,,,,,
,,,,,,,,,,1,erin,2024-09-24_15h32.13.348,Motor_Task,2023.2.2,MacIntel,57.47126437,177.0098,177.6253,3,1,0.6075,,8,1,81,1,1,2,R,,3,,,,,,,
,,,,,,,,,,1,erin,2024-09-24_15h32.13.348,Motor_Task,2023.2.2,MacIntel,57.47126437,177.6256,178.2423,2,1,0.6163,,8,2,82,2,1,3,M,,2,,,,,,,
,,,,,,,,,,1,erin,2024-09-24_15h32.13.348,Motor_Task,2023.2.2,MacIntel,57.47126437,178.2425,178.9591,3,1,0.7094,,8,3,83,3,1,4,R,,3,,,,,,,
,,,,,,,,,,1,erin,2024-09-24_15h32.13.348,Motor_Task,2023.2.2,MacIntel,57.47126437,178.9594,179.5263,1,1,0.5601,,8,4,84,4,1,5,I,,1,,,,,,,
,,,,,,,,,,1,erin,2024-09-24_15h32.13.348,Motor_Task,2023.2.2,MacIntel,57.47126437,179.5267,180.1594,1,1,0.6246,,8,5,85,5,1,6,I,,1,,,,,,,
,,,,,,,,,,1,erin,2024-09-24_15h32.13.348,Motor_Task,2023.2.2,MacIntel,57.47126437,180.1597,180.8251,3,1,0.6642,,8,6,86,6,1,7,R,,3,,,,,,,
,,,,,,,,,,1,erin,2024-09-24_15h32.13.348,Motor_Task,2023.2.2,MacIntel,57.47126437,180.8254,181.3754,2,1,0.5486,,8,7,87,7,1,8,M,,2,,,,,,,
,,,,,,,,,,1,erin,2024-09-24_15h32.13.348,Motor_Task,2023.2.2,MacIntel,57.47126437,181.3756,182.042,4,1,0.6656,,8,8,88,8,1,9,L,,4,,,,,,,
,,,,,,,,,,1,erin,2024-09-24_15h32.13.348,Motor_Task,2023.2.2,MacIntel,57.47126437,182.0423,182.6262,1,1,0.5747,,8,9,89,9,1,10,I,,1,,,,,,,
,,,,,,,,,,1,erin,2024-09-24_15h32.13.348,Motor_Task,2023.2.2,MacIntel,57.47126437,182.6264,183.2252,2,1,0.5906,,9,0,90,0,1,1,M,,2,,,,,,,
,,,,,,,,,,1,erin,2024-09-24_15h32.13.348,Motor_Task,2023.2.2,MacIntel,57.47126437,183.2255,183.8256,3,1,0.5914,,9,1,91,1,1,2,R,,3,,,,,,,
,,,,,,,,,,1,erin,2024-09-24_15h32.13.348,Motor_Task,2023.2.2,MacIntel,57.47126437,183.8259,184.4595,2,1,0.625,,9,2,92,2,1,3,M,,2,,,,,,,
,,,,,,,,,,1,erin,2024-09-24_15h32.13.348,Motor_Task,2023.2.2,MacIntel,57.47126437,184.4599,185.1094,3,1,0.6414,,9,3,93,3,1,4,R,,3,,,,,,,
,,,,,,,,,,1,erin,2024-09-24_15h32.13.348,Motor_Task,2023.2.2,MacIntel,57.47126437,185.1097,185.6916,1,1,0.5814,,9,4,94,4,1,5,I,,1,,,,,,,
,,,,,,,,,,1,erin,2024-09-24_15h32.13.348,Motor_Task,2023.2.2,MacIntel,57.47126437,185.6918,186.3093,1,1,0.6089,,9,5,95,5,1,6,I,,1,,,,,,,
,,,,,,,,,,1,erin,2024-09-24_15h32.13.348,Motor_Task,2023.2.2,MacIntel,57.47126437,186.3096,186.9261,3,1,0.6119,,9,6,96,6,1,7,R,,3,,,,,,,
,,,,,,,,,,1,erin,2024-09-24_15h32.13.348,Motor_Task,2023.2.2,MacIntel,57.47126437,186.9264,187.4751,2,1,0.5471,,9,7,97,7,1,8,M,,2,,,,,,,
,,,,,,,,,,1,erin,2024-09-24_15h32.13.348,Motor_Task,2023.2.2,MacIntel,57.47126437,187.4753,188.1425,4,1,0.6591,,9,8,98,8,1,9,L,,4,,,,,,,
,,,,,,,,,,1,erin,2024-09-24_15h32.13.348,Motor_Task,2023.2.2,MacIntel,57.47126437,188.1427,188.7092,1,1,0.5574,,9,9,99,9,1,10,I,,1,,,,,,,
,,,,,,,,,,1,erin,2024-09-24_15h32.13.348,Motor_Task,2023.2.2,MacIntel,57.47126437,188.7096,189.2921,2,1,0.5772,,10,0,100,0,1,1,M,,2,,,,,,,
,,,,,,,,,,1,erin,2024-09-24_15h32.13.348,Motor_Task,2023.2.2,MacIntel,57.47126437,189.2924,189.8921,3,1,0.5919,,10,1,101,1,1,2,R,,3,,,,,,,
,,,,,,,,,,1,erin,2024-09-24_15h32.13.348,Motor_Task,2023.2.2,MacIntel,57.47126437,189.8924,190.5093,2,1,0.6092,,10,2,102,2,1,3,M,,2,,,,,,,
,,,,,,,,,,1,erin,2024-09-24_15h32.13.348,Motor_Task,2023.2.2,MacIntel,57.47126437,190.5096,191.1593,3,1,0.6474,,10,3,103,3,1,4,R,,3,,,,,,,
,,,,,,,,,,1,erin,2024-09-24_15h32.13.348,Motor_Task,2023.2.2,MacIntel,57.47126437,191.1595,191.7587,1,1,0.591,,10,4,104,4,1,5,I,,1,,,,,,,
,,,,,,,,,,1,erin,2024-09-24_15h32.13.348,Motor_Task,2023.2.2,MacIntel,57.47126437,191.759,192.3594,1,1,0.5951,,10,5,105,5,1,6,I,,1,,,,,,,
,,,,,,,,,,1,erin,2024-09-24_15h32.13.348,Motor_Task,2023.2.2,MacIntel,57.47126437,192.3598,193.0094,3,1,0.6413,,10,6,106,6,1,7,R,,3,,,,,,,
,,,,,,,,,,1,erin,2024-09-24_15h32.13.348,Motor_Task,2023.2.2,MacIntel,57.47126437,193.0097,193.6416,2,1,0.6307,,10,7,107,7,1,8,M,,2,,,,,,,
,,,,,,,,,,1,erin,2024-09-24_15h32.13.348,Motor_Task,2023.2.2,MacIntel,57.47126437,193.6418,194.2591,4,1,0.6081,,10,8,108,8,1,9,L,,4,,,,,,,
,,,,,,,,,,1,erin,2024-09-24_15h32.13.348,Motor_Task,2023.2.2,MacIntel,57.47126437,194.2594,194.7926,1,1,0.525,,10,9,109,9,1,10,I,,1,,,,,,,
,,,,,,,,,,1,erin,2024-09-24_15h32.13.348,Motor_Task,2023.2.2,MacIntel,57.47126437,194.7928,195.3592,2,1,0.564,,11,0,110,0,1,1,M,,2,,,,,,,
,,,,,,,,,,1,erin,2024-09-24_15h32.13.348,Motor_Task,2023.2.2,MacIntel,57.47126437,195.3595,195.8924,3,1,0.524,,11,1,111,1,1,2,R,,3,,,,,,,
,,,,,,,,,,1,erin,2024-09-24_15h32.13.348,Motor_Task,2023.2.2,MacIntel,57.47126437,195.8927,196.5092,2,1,0.6074,,11,2,112,2,1,3,M,,2,,,,,,,
,,,,,,,,,,1,erin,2024-09-24_15h32.13.348,Motor_Task,2023.2.2,MacIntel,57.47126437,196.5095,197.1258,3,1,0.6111,,11,3,113,3,1,4,R,,3,,,,,,,
,,,,,,,,,,1,erin,2024-09-24_15h32.13.348,Motor_Task,2023.2.2,MacIntel,57.47126437,197.1261,197.6758,1,1,0.5409,,11,4,114,4,1,5,I,,1,,,,,,,
,,,,,,,,,,1,erin,2024-09-24_15h32.13.348,Motor_Task,2023.2.2,MacIntel,57.47126437,197.6761,198.2591,1,1,0.5743,,11,5,115,5,1,6,I,,1,,,,,,,
,,,,,,,,,,1,erin,2024-09-24_15h32.13.348,Motor_Task,2023.2.2,MacIntel,57.47126437,198.2594,198.8751,3,1,0.6085,,11,6,116,6,1,7,R,,3,,,,,,,
,,,,,,,,,,1,erin,2024-09-24_15h32.13.348,Motor_Task,2023.2.2,MacIntel,57.47126437,198.8752,199.5414,2,1,0.6645,,11,7,117,7,1,8,M,,2,,,,,,,
,,,,,,,,,,1,erin,2024-09-24_15h32.13.348,Motor_Task,2023.2.2,MacIntel,57.47126437,199.5415,200.1759,4,1,0.6255,,11,8,118,8,1,9,L,,4,,,,,,,
,,,,,,,,,,1,erin,2024-09-24_15h32.13.348,Motor_Task,2023.2.2,MacIntel,57.47126437,200.1761,200.7257,1,1,0.5471,,11,9,119,9,1,10,I,,1,,,,,,,
,,,,,,,,,,1,erin,2024-09-24_15h32.13.348,Motor_Task,2023.2.2,MacIntel,57.47126437,200.7261,201.3583,2,1,0.6239,,12,0,120,0,1,1,M,,2,,,,,,,
,,,,,,,,,,1,erin,2024-09-24_15h32.13.348,Motor_Task,2023.2.2,MacIntel,57.47126437,201.3585,201.9416,3,1,0.5743,,12,1,121,1,1,2,R,,3,,,,,,,
,,,,,,,,,,1,erin,2024-09-24_15h32.13.348,Motor_Task,2023.2.2,MacIntel,57.47126437,201.9419,202.5751,2,1,0.6329,,12,2,122,2,1,3,M,,2,,,,,,,
,,,,,,,,,,1,erin,2024-09-24_15h32.13.348,Motor_Task,2023.2.2,MacIntel,57.47126437,202.5753,203.1748,3,1,0.5979,,12,3,123,3,1,4,R,,3,,,,,,,
,,,,,,,,,,1,erin,2024-09-24_15h32.13.348,Motor_Task,2023.2.2,MacIntel,57.47126437,203.1749,203.7921,1,1,0.6167,,12,4,124,4,1,5,I,,1,,,,,,,
,,,,,,,,,,1,erin,2024-09-24_15h32.13.348,Motor_Task,2023.2.2,MacIntel,57.47126437,203.7924,204.3925,1,1,0.5918,,12,5,125,5,1,6,I,,1,,,,,,,
,,,,,,,,,,1,erin,2024-09-24_15h32.13.348,Motor_Task,2023.2.2,MacIntel,57.47126437,204.3927,205.009,3,1,0.6139,,12,6,126,6,1,7,R,,3,,,,,,,
,,,,,,,,,,1,erin,2024-09-24_15h32.13.348,Motor_Task,2023.2.2,MacIntel,57.47126437,205.0094,205.6593,2,1,0.641,,12,7,127,7,1,8,M,,2,,,,,,,
,,,,,,,,,,1,erin,2024-09-24_15h32.13.348,Motor_Task,2023.2.2,MacIntel,57.47126437,205.6596,206.3258,4,1,0.657,,12,8,128,8,1,9,L,,4,,,,,,,
,,,,,,,,,,1,erin,2024-09-24_15h32.13.348,Motor_Task,2023.2.2,MacIntel,57.47126437,206.3261,206.9092,1,1,0.578,,12,9,129,9,1,10,I,,1,,,,,,,
,,,,,,,,,,1,erin,2024-09-24_15h32.13.348,Motor_Task,2023.2.2,MacIntel,57.47126437,206.9096,207.5424,2,1,0.6247,,13,0,130,0,1,1,M,,2,,,,,,,
,,,,,,,,,,1,erin,2024-09-24_15h32.13.348,Motor_Task,2023.2.2,MacIntel,57.47126437,207.5427,208.1584,3,1,0.6075,,13,1,131,1,1,2,R,,3,,,,,,,
,,,,,,,,,,1,erin,2024-09-24_15h32.13.348,Motor_Task,2023.2.2,MacIntel,57.47126437,208.1586,208.7923,2,1,0.6266,,13,2,132,2,1,3,M,,2,,,,,,,
,,,,,,,,,,1,erin,2024-09-24_15h32.13.348,Motor_Task,2023.2.2,MacIntel,57.47126437,208.7926,209.3751,3,1,0.5744,,13,3,133,3,1,4,R,,3,,,,,,,
,,,,,,,,,,1,erin,2024-09-24_15h32.13.348,Motor_Task,2023.2.2,MacIntel,57.47126437,209.3755,209.9924,1,1,0.6083,,13,4,134,4,1,5,I,,1,,,,,,,
,,,,,,,,,,1,erin,2024-09-24_15h32.13.348,Motor_Task,2023.2.2,MacIntel,57.47126437,209.9926,210.5584,1,1,0.5574,,13,5,135,5,1,6,I,,1,,,,,,,
,,,,,,,,,,1,erin,2024-09-24_15h32.13.348,Motor_Task,2023.2.2,MacIntel,57.47126437,210.5587,211.1585,3,1,0.5903,,13,6,136,6,1,7,R,,3,,,,,,,
,,,,,,,,,,1,erin,2024-09-24_15h32.13.348,Motor_Task,2023.2.2,MacIntel,57.47126437,211.1588,211.7587,2,1,0.5917,,13,7,137,7,1,8,M,,2,,,,,,,
,,,,,,,,,,1,erin,2024-09-24_15h32.13.348,Motor_Task,2023.2.2,MacIntel,57.47126437,211.759,212.4249,4,1,0.6572,,13,8,138,8,1,9,L,,4,,,,,,,
,,,,,,,,,,1,erin,2024-09-24_15h32.13.348,Motor_Task,2023.2.2,MacIntel,57.47126437,212.4251,212.9758,1,1,0.5431,,13,9,139,9,1,10,I,,1,,,,,,,
,,,,,,,,,,1,erin,2024-09-24_15h32.13.348,Motor_Task,2023.2.2,MacIntel,57.47126437,212.9761,213.5256,2,1,0.5406,,14,0,140,0,1,1,M,,2,,,,,,,
,,,,,,,,,,1,erin,2024-09-24_15h32.13.348,Motor_Task,2023.2.2,MacIntel,57.47126437,213.5259,214.0911,3,1,0.5555,,14,1,141,1,1,2,R,,3,,,,,,,
,,,,,,,,,,1,erin,2024-09-24_15h32.13.348,Motor_Task,2023.2.2,MacIntel,57.47126437,214.0914,214.7079,2,1,0.6096,,14,2,142,2,1,3,M,,2,,,,,,,
,,,,,,,,,,1,erin,2024-09-24_15h32.13.348,Motor_Task,2023.2.2,MacIntel,57.47126437,214.7081,215.2588,3,1,0.5475,,14,3,143,3,1,4,R,,3,,,,,,,
,,,,,,,,,,1,erin,2024-09-24_15h32.13.348,Motor_Task,2023.2.2,MacIntel,57.47126437,215.259,215.8912,1,1,0.6309,,14,4,144,4,1,5,I,,1,,,,,,,
,,,,,,,,,,1,erin,2024-09-24_15h32.13.348,Motor_Task,2023.2.2,MacIntel,57.47126437,215.8914,216.4591,1,1,0.558,,14,5,145,5,1,6,I,,1,,,,,,,
,,,,,,,,,,1,erin,2024-09-24_15h32.13.348,Motor_Task,2023.2.2,MacIntel,57.47126437,216.4595,217.0579,3,1,0.5904,,14,6,146,6,1,7,R,,3,,,,,,,
,,,,,,,,,,1,erin,2024-09-24_15h32.13.348,Motor_Task,2023.2.2,MacIntel,57.47126437,217.0582,217.6089,2,1,0.5428,,14,7,147,7,1,8,M,,2,,,,,,,
,,,,,,,,,,1,erin,2024-09-24_15h32.13.348,Motor_Task,2023.2.2,MacIntel,57.47126437,217.6092,218.2749,4,1,0.6643,,14,8,148,8,1,9,L,,4,,,,,,,
,,,,,,,,,,1,erin,2024-09-24_15h32.13.348,Motor_Task,2023.2.2,MacIntel,57.47126437,218.275,218.8249,1,1,0.5496,,14,9,149,9,1,10,I,,1,,,,,,,
,,,,,,,,,,1,erin,2024-09-24_15h32.13.348,Motor_Task,2023.2.2,MacIntel,57.47126437,218.8252,219.4256,2,1,0.592,,15,0,150,0,1,1,M,,2,,,,,,,
,,,,,,,,,,1,erin,2024-09-24_15h32.13.348,Motor_Task,2023.2.2,MacIntel,57.47126437,219.4259,220.025,3,1,0.5909,,15,1,151,1,1,2,R,,3,,,,,,,
,,,,,,,,,,1,erin,2024-09-24_15h32.13.348,Motor_Task,2023.2.2,MacIntel,57.47126437,220.0252,220.5923,2,1,0.5579,,15,2,152,2,1,3,M,,2,,,,,,,
,,,,,,,,,,1,erin,2024-09-24_15h32.13.348,Motor_Task,2023.2.2,MacIntel,57.47126437,220.5926,221.309,3,1,0.7079,,15,3,153,3,1,4,R,,3,,,,,,,
,,,,,,,,,,1,erin,2024-09-24_15h32.13.348,Motor_Task,2023.2.2,MacIntel,57.47126437,221.3093,221.8913,1,1,0.5808,,15,4,154,4,1,5,I,,1,,,,,,,
,,,,,,,,,,1,erin,2024-09-24_15h32.13.348,Motor_Task,2023.2.2,MacIntel,57.47126437,221.8915,222.4756,1,1,0.5782,,15,5,155,5,1,6,I,,1,,,,,,,
,,,,,,,,,,1,erin,2024-09-24_15h32.13.348,Motor_Task,2023.2.2,MacIntel,57.47126437,222.4759,223.1089,3,1,0.625,,15,6,156,6,1,7,R,,3,,,,,,,
,,,,,,,,,,1,erin,2024-09-24_15h32.13.348,Motor_Task,2023.2.2,MacIntel,57.47126437,223.1091,223.708,2,1,0.5974,,15,7,157,7,1,8,M,,2,,,,,,,
,,,,,,,,,,1,erin,2024-09-24_15h32.13.348,Motor_Task,2023.2.2,MacIntel,57.47126437,223.7082,224.3411,4,1,0.6323,,15,8,158,8,1,9,L,,4,,,,,,,
,,,,,,,,,,1,erin,2024-09-24_15h32.13.348,Motor_Task,2023.2.2,MacIntel,57.47126437,224.3413,224.9089,1,1,0.5598,,15,9,159,9,1,10,I,,1,,,,,,,
,,,,,,,,,,1,erin,2024-09-24_15h32.13.348,Motor_Task,2023.2.2,MacIntel,57.47126437,224.9093,225.5255,2,1,0.6071,,16,0,160,0,1,1,M,,2,,,,,,,
,,,,,,,,,,1,erin,2024-09-24_15h32.13.348,Motor_Task,2023.2.2,MacIntel,57.47126437,225.5257,226.142,3,1,0.6097,,16,1,161,1,1,2,R,,3,,,,,,,
,,,,,,,,,,1,erin,2024-09-24_15h32.13.348,Motor_Task,2023.2.2,MacIntel,57.47126437,226.1423,226.7254,2,1,0.574,,16,2,162,2,1,3,M,,2,,,,,,,
,,,,,,,,,,1,erin,2024-09-24_15h32.13.348,Motor_Task,2023.2.2,MacIntel,57.47126437,226.7256,227.342,3,1,0.6076,,16,3,163,3,1,4,R,,3,,,,,,,
,,,,,,,,,,1,erin,2024-09-24_15h32.13.348,Motor_Task,2023.2.2,MacIntel,57.47126437,227.3423,227.9087,1,1,0.5572,,16,4,164,4,1,5,I,,1,,,,,,,
,,,,,,,,,,1,erin,2024-09-24_15h32.13.348,Motor_Task,2023.2.2,MacIntel,57.47126437,227.909,228.4909,1,1,0.5808,,16,5,165,5,1,6,I,,1,,,,,,,
,,,,,,,,,,1,erin,2024-09-24_15h32.13.348,Motor_Task,2023.2.2,MacIntel,57.47126437,228.4912,229.1588,3,1,0.6585,,16,6,166,6,1,7,R,,3,,,,,,,
,,,,,,,,,,1,erin,2024-09-24_15h32.13.348,Motor_Task,2023.2.2,MacIntel,57.47126437,229.1592,229.7254,2,1,0.558,,16,7,167,7,1,8,M,,2,,,,,,,
,,,,,,,,,,1,erin,2024-09-24_15h32.13.348,Motor_Task,2023.2.2,MacIntel,57.47126437,229.7257,230.3587,4,1,0.6238,,16,8,168,8,1,9,L,,4,,,,,,,
,,,,,,,,,,1,erin,2024-09-24_15h32.13.348,Motor_Task,2023.2.2,MacIntel,57.47126437,230.359,230.9245,1,1,0.557,,16,9,169,9,1,10,I,,1,,,,,,,
,,,,,,,,,,1,erin,2024-09-24_15h32.13.348,Motor_Task,2023.2.2,MacIntel,57.47126437,230.9247,231.5081,2,1,0.582,,17,0,170,0,1,1,M,,2,,,,,,,
,,,,,,,,,,1,erin,2024-09-24_15h32.13.348,Motor_Task,2023.2.2,MacIntel,57.47126437,231.5083,232.0754,3,1,0.5587,,17,1,171,1,1,2,R,,3,,,,,,,
,,,,,,,,,,1,erin,2024-09-24_15h32.13.348,Motor_Task,2023.2.2,MacIntel,57.47126437,232.0757,232.6753,2,1,0.5969,,17,2,172,2,1,3,M,,2,,,,,,,
,,,,,,,,,,1,erin,2024-09-24_15h32.13.348,Motor_Task,2023.2.2,MacIntel,57.47126437,232.6756,233.3746,3,1,0.6946,,17,3,173,3,1,4,R,,3,,,,,,,
,,,,,,,,,,1,erin,2024-09-24_15h32.13.348,Motor_Task,2023.2.2,MacIntel,57.47126437,233.3749,233.9577,1,1,0.5815,,17,4,174,4,1,5,I,,1,,,,,,,
,,,,,,,,,,1,erin,2024-09-24_15h32.13.348,Motor_Task,2023.2.2,MacIntel,57.47126437,233.9579,234.5253,1,1,0.5586,,17,5,175,5,1,6,I,,1,,,,,,,
,,,,,,,,,,1,erin,2024-09-24_15h32.13.348,Motor_Task,2023.2.2,MacIntel,57.47126437,234.5256,235.1422,3,1,0.6081,,17,6,176,6,1,7,R,,3,,,,,,,
,,,,,,,,,,1,erin,2024-09-24_15h32.13.348,Motor_Task,2023.2.2,MacIntel,57.47126437,235.1426,235.7085,2,1,0.5635,,17,7,177,7,1,8,M,,2,,,,,,,
,,,,,,,,,,1,erin,2024-09-24_15h32.13.348,Motor_Task,2023.2.2,MacIntel,57.47126437,235.7087,236.392,4,1,0.6745,,17,8,178,8,1,9,L,,4,,,,,,,
,,,,,,,,,,1,erin,2024-09-24_15h32.13.348,Motor_Task,2023.2.2,MacIntel,57.47126437,236.3922,236.9582,1,1,0.558,,17,9,179,9,1,10,I,,1,,,,,,,
,,,,,,,,,,1,erin,2024-09-24_15h32.13.348,Motor_Task,2023.2.2,MacIntel,57.47126437,236.9585,237.5254,2,1,0.5576,,18,0,180,0,1,1,M,,2,,,,,,,
,,,,,,,,,,1,erin,2024-09-24_15h32.13.348,Motor_Task,2023.2.2,MacIntel,57.47126437,237.5257,238.1087,3,1,0.5749,,18,1,181,1,1,2,R,,3,,,,,,,
,,,,,,,,,,1,erin,2024-09-24_15h32.13.348,Motor_Task,2023.2.2,MacIntel,57.47126437,238.109,238.6422,2,1,0.5234,,18,2,182,2,1,3,M,,2,,,,,,,
,,,,,,,,,,1,erin,2024-09-24_15h32.13.348,Motor_Task,2023.2.2,MacIntel,57.47126437,238.6424,239.2753,3,1,0.6246,,18,3,183,3,1,4,R,,3,,,,,,,
,,,,,,,,,,1,erin,2024-09-24_15h32.13.348,Motor_Task,2023.2.2,MacIntel,57.47126437,239.2757,239.8586,1,1,0.5743,,18,4,184,4,1,5,I,,1,,,,,,,
,,,,,,,,,,1,erin,2024-09-24_15h32.13.348,Motor_Task,2023.2.2,MacIntel,57.47126437,239.8589,240.4754,1,1,0.6083,,18,5,185,5,1,6,I,,1,,,,,,,
,,,,,,,,,,1,erin,2024-09-24_15h32.13.348,Motor_Task,2023.2.2,MacIntel,57.47126437,240.4758,241.1254,3,1,0.6411,,18,6,186,6,1,7,R,,3,,,,,,,
,,,,,,,,,,1,erin,2024-09-24_15h32.13.348,Motor_Task,2023.2.2,MacIntel,57.47126437,241.1256,241.7252,2,1,0.5898,,18,7,187,7,1,8,M,,2,,,,,,,
,,,,,,,,,,1,erin,2024-09-24_15h32.13.348,Motor_Task,2023.2.2,MacIntel,57.47126437,241.7255,242.3254,4,1,0.5938,,18,8,188,8,1,9,L,,4,,,,,,,
,,,,,,,,,,1,erin,2024-09-24_15h32.13.348,Motor_Task,2023.2.2,MacIntel,57.47126437,242.3257,242.8748,1,1,0.5476,,18,9,189,9,1,10,I,,1,,,,,,,
,,,,,,,,,,1,erin,2024-09-24_15h32.13.348,Motor_Task,2023.2.2,MacIntel,57.47126437,242.8751,243.4252,2,1,0.5414,,19,0,190,0,1,1,M,,2,,,,,,,
,,,,,,,,,,1,erin,2024-09-24_15h32.13.348,Motor_Task,2023.2.2,MacIntel,57.47126437,243.4254,243.9919,3,1,0.5587,,19,1,191,1,1,2,R,,3,,,,,,,
,,,,,,,,,,1,erin,2024-09-24_15h32.13.348,Motor_Task,2023.2.2,MacIntel,57.47126437,243.9922,244.5751,2,1,0.5742,,19,2,192,2,1,3,M,,2,,,,,,,
,,,,,,,,,,1,erin,2024-09-24_15h32.13.348,Motor_Task,2023.2.2,MacIntel,57.47126437,244.5754,245.2085,3,1,0.6246,,19,3,193,3,1,4,R,,3,,,,,,,
,,,,,,,,,,1,erin,2024-09-24_15h32.13.348,Motor_Task,2023.2.2,MacIntel,57.47126437,245.2089,245.8075,1,1,0.5982,,19,4,194,4,1,5,I,,1,,,,,,,
,,,,,,,,,,1,erin,2024-09-24_15h32.13.348,Motor_Task,2023.2.2,MacIntel,57.47126437,245.8078,246.3918,1,1,0.5759,,19,5,195,5,1,6,I,,1,,,,,,,
,,,,,,,,,,1,erin,2024-09-24_15h32.13.348,Motor_Task,2023.2.2,MacIntel,57.47126437,246.3921,247.0253,3,1,0.6237,,19,6,196,6,1,7,R,,3,,,,,,,
,,,,,,,,,,1,erin,2024-09-24_15h32.13.348,Motor_Task,2023.2.2,MacIntel,57.47126437,247.0255,247.6582,2,1,0.6321,,19,7,197,7,1,8,M,,2,,,,,,,
,,,,,,,,,,1,erin,2024-09-24_15h32.13.348,Motor_Task,2023.2.2,MacIntel,57.47126437,247.6584,248.2252,4,1,0.5579,,19,8,198,8,1,9,L,,4,,,,,,,
,,,,,,,,,,1,erin,2024-09-24_15h32.13.348,Motor_Task,2023.2.2,MacIntel,57.47126437,248.2254,248.7917,1,1,0.5571,,19,9,199,9,1,10,I,,1,,,,,,,
,,,,,,,,,,1,erin,2024-09-24_15h32.13.348,Motor_Task,2023.2.2,MacIntel,57.47126437,248.7965,249.5072,3,1,0.7022,,,,,,,7,R,,3,0,0,0,6,1,,
,,,,,,,,,,1,erin,2024-09-24_15h32.13.348,Motor_Task,2023.2.2,MacIntel,57.47126437,249.5076,250.1084,3,1,0.5914,,,,,,,4,R,,3,0,1,1,3,1,,
,,,,,,,,,,1,erin,2024-09-24_15h32.13.348,Motor_Task,2023.2.2,MacIntel,57.47126437,250.1088,250.7581,4,1,0.6435,,,,,,,9,L,,4,0,2,2,8,1,,
,,,,,,,,,,1,erin,2024-09-24_15h32.13.348,Motor_Task,2023.2.2,MacIntel,57.47126437,250.7584,251.4586,2,1,0.6919,,,,,,,8,M,,2,0,3,3,7,1,,
,,,,,,,,,,1,erin,2024-09-24_15h32.13.348,Motor_Task,2023.2.2,MacIntel,57.47126437,251.4588,252.0741,2,1,0.6075,,,,,,,3,M,,2,0,4,4,2,1,,
,,,,,,,,,,1,erin,2024-09-24_15h32.13.348,Motor_Task,2023.2.2,MacIntel,57.47126437,252.0743,252.6912,3,1,0.6156,,,,,,,2,R,,3,0,5,5,1,1,,
,,,,,,,,,,1,erin,2024-09-24_15h32.13.348,Motor_Task,2023.2.2,MacIntel,57.47126437,252.6914,253.2751,1,1,0.5748,,,,,,,10,I,,1,0,6,6,9,1,,
,,,,,,,,,,1,erin,2024-09-24_15h32.13.348,Motor_Task,2023.2.2,MacIntel,57.47126437,253.2754,253.8751,1,1,0.5955,,,,,,,6,I,,1,0,7,7,5,1,,
,,,,,,,,,,1,erin,2024-09-24_15h32.13.348,Motor_Task,2023.2.2,MacIntel,57.47126437,253.8753,254.5739,2,1,0.6907,,,,,,,1,M,,2,0,8,8,0,1,,
,,,,,,,,,,1,erin,2024-09-24_15h32.13.348,Motor_Task,2023.2.2,MacIntel,57.47126437,254.5741,255.2251,1,1,0.6427,,,,,,,5,I,,1,0,9,9,4,1,,
,,,,,,,,,,1,erin,2024-09-24_15h32.13.348,Motor_Task,2023.2.2,MacIntel,57.47126437,255.2254,255.7918,1,1,0.5581,,,,,,,5,I,,1,1,0,10,4,1,,
,,,,,,,,,,1,erin,2024-09-24_15h32.13.348,Motor_Task,2023.2.2,MacIntel,57.47126437,255.7922,256.5085,1,1,0.7083,,,,,,,6,I,,1,1,1,11,5,1,,
,,,,,,,,,,1,erin,2024-09-24_15h32.13.348,Motor_Task,2023.2.2,MacIntel,57.47126437,256.5089,257.1415,2,1,0.6246,,,,,,,8,M,,2,1,2,12,7,1,,
,,,,,,,,,,1,erin,2024-09-24_15h32.13.348,Motor_Task,2023.2.2,MacIntel,57.47126437,257.1418,257.7583,2,1,0.6082,,,,,,,1,M,,2,1,3,13,0,1,,
,,,,,,,,,,1,erin,2024-09-24_15h32.13.348,Motor_Task,2023.2.2,MacIntel,57.47126437,257.7585,258.4918,4,1,0.7249,,,,,,,9,L,,4,1,4,14,8,1,,
,,,,,,,,,,1,erin,2024-09-24_15h32.13.348,Motor_Task,2023.2.2,MacIntel,57.47126437,258.4921,259.3084,3,1,0.8082,,,,,,,2,R,,3,1,5,15,1,1,,
,,,,,,,,,,1,erin,2024-09-24_15h32.13.348,Motor_Task,2023.2.2,MacIntel,57.47126437,259.3086,259.9743,3,1,0.662,,,,,,,7,R,,3,1,6,16,6,1,,
,,,,,,,,,,1,erin,2024-09-24_15h32.13.348,Motor_Task,2023.2.2,MacIntel,57.47126437,259.9745,260.6417,1,1,0.659,,,,,,,10,I,,1,1,7,17,9,1,,
,,,,,,,,,,1,erin,2024-09-24_15h32.13.348,Motor_Task,2023.2.2,MacIntel,57.47126437,260.642,261.2917,3,1,0.642,,,,,,,4,R,,3,1,8,18,3,1,,
,,,,,,,,,,1,erin,2024-09-24_15h32.13.348,Motor_Task,2023.2.2,MacIntel,57.47126437,261.292,261.875,2,1,0.5755,,,,,,,3,M,,2,1,9,19,2,1,,
,,,,,,,,,,1,erin,2024-09-24_15h32.13.348,Motor_Task,2023.2.2,MacIntel,57.47126437,261.8751,262.4916,1,1,0.6066,,,,,,,5,I,,1,2,0,20,4,1,,
,,,,,,,,,,1,erin,2024-09-24_15h32.13.348,Motor_Task,2023.2.2,MacIntel,57.47126437,262.4919,263.1077,3,1,0.6077,,,,,,,2,R,,3,2,1,21,1,1,,
,,,,,,,,,,1,erin,2024-09-24_15h32.13.348,Motor_Task,2023.2.2,MacIntel,57.47126437,263.1081,263.7084,2,1,0.5937,,,,,,,1,M,,2,2,2,22,0,1,,
,,,,,,,,,,1,erin,2024-09-24_15h32.13.348,Motor_Task,2023.2.2,MacIntel,57.47126437,263.7088,264.2915,1,1,0.5746,,,,,,,6,I,,1,2,3,23,5,1,,
,,,,,,,,,,1,erin,2024-09-24_15h32.13.348,Motor_Task,2023.2.2,MacIntel,57.47126437,264.2918,264.8751,3,1,0.5738,,,,,,,7,R,,3,2,4,24,6,1,,
,,,,,,,,,,1,erin,2024-09-24_15h32.13.348,Motor_Task,2023.2.2,MacIntel,57.47126437,264.8754,265.425,2,1,0.5407,,,,,,,3,M,,2,2,5,25,2,1,,
,,,,,,,,,,1,erin,2024-09-24_15h32.13.348,Motor_Task,2023.2.2,MacIntel,57.47126437,265.4254,266.075,4,1,0.6405,,,,,,,9,L,,4,2,6,26,8,1,,
,,,,,,,,,,1,erin,2024-09-24_15h32.13.348,Motor_Task,2023.2.2,MacIntel,57.47126437,266.0754,266.8582,3,1,0.7733,,,,,,,4,R,,3,2,7,27,3,1,,
,,,,,,,,,,1,erin,2024-09-24_15h32.13.348,Motor_Task,2023.2.2,MacIntel,57.47126437,266.8584,267.4083,2,1,0.5419,,,,,,,8,M,,2,2,8,28,7,1,,
,,,,,,,,,,1,erin,2024-09-24_15h32.13.348,Motor_Task,2023.2.2,MacIntel,57.47126437,267.4086,267.9747,1,1,0.5638,,,,,,,10,I,,1,2,9,29,9,1,,
,,,,,,,,,,1,erin,2024-09-24_15h32.13.348,Motor_Task,2023.2.2,MacIntel,57.47126437,267.975,268.6416,2,1,0.6589,,,,,,,1,M,,2,3,0,30,0,1,,
,,,,,,,,,,1,erin,2024-09-24_15h32.13.348,Motor_Task,2023.2.2,MacIntel,57.47126437,268.6419,269.2916,1,1,0.6401,,,,,,,6,I,,1,3,1,31,5,1,,
,,,,,,,,,,1,erin,2024-09-24_15h32.13.348,Motor_Task,2023.2.2,MacIntel,57.47126437,269.2919,269.858,1,1,0.5635,,,,,,,5,I,,1,3,2,32,4,1,,
,,,,,,,,,,1,erin,2024-09-24_15h32.13.348,Motor_Task,2023.2.2,MacIntel,57.47126437,269.8583,270.5745,4,1,0.7081,,,,,,,9,L,,4,3,3,33,8,1,,
,,,,,,,,,,1,erin,2024-09-24_15h32.13.348,Motor_Task,2023.2.2,MacIntel,57.47126437,270.5748,271.2405,2,1,0.6643,,,,,,,8,M,,2,3,4,34,7,1,,
,,,,,,,,,,1,erin,2024-09-24_15h32.13.348,Motor_Task,2023.2.2,MacIntel,57.47126437,271.2407,271.8082,3,1,0.5596,,,,,,,2,R,,3,3,5,35,1,1,,
,,,,,,,,,,1,erin,2024-09-24_15h32.13.348,Motor_Task,2023.2.2,MacIntel,57.47126437,271.8085,272.3581,2,1,0.5412,,,,,,,3,M,,2,3,6,36,2,1,,
,,,,,,,,,,1,erin,2024-09-24_15h32.13.348,Motor_Task,2023.2.2,MacIntel,57.47126437,272.3584,272.9416,1,1,0.5731,,,,,,,10,I,,1,3,7,37,9,1,,
,,,,,,,,,,1,erin,2024-09-24_15h32.13.348,Motor_Task,2023.2.2,MacIntel,57.47126437,272.9419,273.6074,3,1,0.664,,,,,,,7,R,,3,3,8,38,6,1,,
,,,,,,,,,,1,erin,2024-09-24_15h32.13.348,Motor_Task,2023.2.2,MacIntel,57.47126437,273.6076,274.1909,3,1,0.5822,,,,,,,4,R,,3,3,9,39,3,1,,
,,,,,,,,,,1,erin,2024-09-24_15h32.13.348,Motor_Task,2023.2.2,MacIntel,57.47126437,274.1912,274.7576,3,1,0.565,,,,,,,2,R,,3,4,0,40,1,1,,
,,,,,,,,,,1,erin,2024-09-24_15h32.13.348,Motor_Task,2023.2.2,MacIntel,57.47126437,274.7578,275.4082,1,1,0.6421,,,,,,,10,I,,1,4,1,41,9,1,,
,,,,,,,,,,1,erin,2024-09-24_15h32.13.348,Motor_Task,2023.2.2,MacIntel,57.47126437,275.4085,275.9748,1,1,0.5622,,,,,,,5,I,,1,4,2,42,4,1,,
,,,,,,,,,,1,erin,2024-09-24_15h32.13.348,Motor_Task,2023.2.2,MacIntel,57.47126437,275.9751,276.5413,2,1,0.5604,,,,,,,8,M,,2,4,3,43,7,1,,
,,,,,,,,,,1,erin,2024-09-24_15h32.13.348,Motor_Task,2023.2.2,MacIntel,57.47126437,276.5415,277.2248,4,1,0.675,,,,,,,9,L,,4,4,4,44,8,1,,
,,,,,,,,,,1,erin,2024-09-24_15h32.13.348,Motor_Task,2023.2.2,MacIntel,57.47126437,277.2251,277.808,1,1,0.5738,,,,,,,6,I,,1,4,5,45,5,1,,
,,,,,,,,,,1,erin,2024-09-24_15h32.13.348,Motor_Task,2023.2.2,MacIntel,57.47126437,277.8083,278.3581,2,1,0.5415,,,,,,,3,M,,2,4,6,46,2,1,,
,,,,,,,,,,1,erin,2024-09-24_15h32.13.348,Motor_Task,2023.2.2,MacIntel,57.47126437,278.3584,278.958,3,1,0.5916,,,,,,,7,R,,3,4,7,47,6,1,,
,,,,,,,,,,1,erin,2024-09-24_15h32.13.348,Motor_Task,2023.2.2,MacIntel,57.47126437,278.9584,279.5748,3,1,0.6073,,,,,,,4,R,,3,4,8,48,3,1,,
,,,,,,,,,,1,erin,2024-09-24_15h32.13.348,Motor_Task,2023.2.2,MacIntel,57.47126437,279.5751,280.258,2,1,0.6738,,,,,,,1,M,,2,4,9,49,0,1,,
,,,,,,,,,,1,erin,2024-09-24_15h32.13.348,Motor_Task,2023.2.2,MacIntel,57.47126437,,,,,,,,,,,,,,,,,,,,,280.2583,284.2574