Trigger.started,Trigger.stopped,key_resp_4.keys,key_resp_4.rt,key_resp_4.duration,mouse.x,mouse.y,mouse.leftButton,mouse.midButton,mouse.rightButton,Session,Subject,date,expName,psychopyVersion,OS,frameRate,complex_block.started,complex_block.stopped,key_resp.keys,key_resp.corr,key_resp.rt,key_resp.duration,complex_block_loop.thisRepN,complex_block_loop.thisTrialN,complex_block_loop.thisN,complex_block_loop.thisIndex,complex_block_loop.ran,trial,finger,markerPos,correctResp,new_block_loop.thisRepN,new_block_loop.thisTrialN,new_block_loop.thisN,new_block_loop.thisIndex,new_block_loop.ran,endBuffer.started,endBuffer.stopped
0.0049,10.0297,1,9.977,,-0.151851824,0.051851824,0,0,0,1,ESK,2024-09-24_15h34.22.446,Motor_Task,2023.2.2,Win32,60.24096386,,,,,,,,,,,,,,,,,,,,,,
,,,,,,,,,,1,ESK,2024-09-24_15h34.22.446,Motor_Task,2023.2.2,Win32,60.24096386,10.0491,10.7947,2,1,0.742,,0,0,0,0,1,1,M,,2,,,,,,,
,,,,,,,,,,1,ESK,2024-09-24_15h34.22.446,Motor_Task,2023.2.2,Win32,60.24096386,10.7958,11.3435,3,1,0.5472,,0,1,1,1,1,2,R,,3,,,,,,,
,,,,,,,,,,1,ESK,2024-09-24_15h34.22.446,Motor_Task,2023.2.2,Win32,60.24096386,11.3438,11.8936,2,1,0.5463,,0,2,2,2,1,3,M,,2,,,,,,,
,,,,,,,,,,1,ESK,2024-09-24_15h34.22.446,Motor_Task,2023.2.2,Win32,60.24096386,11.8939,12.4109,3,1,0.5088,,0,3,3,3,1,4,R,,3,,,,,,,
,,,,,,,,,,1,ESK,2024-09-24_15h34.22.446,Motor_Task,2023.2.2,Win32,60.24096386,12.4118,12.9937,1,1,0.5701,,0,4,4,4,1,5,I,,1,,,,,,,
,,,,,,,,,,1,ESK,2024-09-24_15h34.22.446,Motor_Task,2023.2.2,Win32,60.24096386,12.9947,13.4772,1,1,0.4717,,0,5,5,5,1,6,I,,1,,,,,,,
,,,,,,,,,,1,ESK,2024-09-24_15h34.22.446,Motor_Task,2023.2.2,Win32,60.24096386,13.4787,14.1106,3,1,0.6205,,0,6,6,6,1,7,R,,3,,,,,,,
,,,,,,,,,,1,ESK,2024-09-24_15h34.22.446,Motor_Task,2023.2.2,Win32,60.24096386,14.1114,14.6103,2,1,0.4869,,0,7,7,7,1,8,M,,2,,,,,,,
,,,,,,,,,,1,ESK,2024-09-24_15h34.22.446,Motor_Task,2023.2.2,Win32,60.24096386,14.6114,15.1769,4,1,0.554,,0,8,8,8,1,9,L,,4,,,,,,,
,,,,,,,,,,1,ESK,2024-09-24_15h34.22.446,Motor_Task,2023.2.2,Win32,60.24096386,15.1778,15.7437,1,1,0.555,,0,9,9,9,1,10,I,,1,,,,,,,
,,,,,,,,,,1,ESK,2024-09-24_15h34.22.446,Motor_Task,2023.2.2,Win32,60.24096386,15.7446,16.2272,2,1,0.4708,,1,0,10,0,1,1,M,,2,,,,,,,
,,,,,,,,,,1,ESK,2024-09-24_15h34.22.446,Motor_Task,2023.2.2,Win32,60.24096386,16.2286,16.6769,3,1,0.4441,,1,1,11,1,1,2,R,,3,,,,,,,
,,,,,,,,,,1,ESK,2024-09-24_15h34.22.446,Motor_Task,2023.2.2,Win32,60.24096386,16.6778,17.1591,1,0,0.4746,,1,2,12,2,1,3,M,,2,,,,,,,
,,,,,,,,,,1,ESK,2024-09-24_15h34.22.446,Motor_Task,2023.2.2,Win32,60.24096386,17.16,17.859,3,1,0.6981,,1,3,13,3,1,4,R,,3,,,,,,,
,,,,,,,,,,1,ESK,2024-09-24_15h34.22.446,Motor_Task,2023.2.2,Win32,60.24096386,17.8596,18.4425,1,1,0.5781,,1,4,14,4,1,5,I,,1,,,,,,,
,,,,,,,,,,1,ESK,2024-09-24_15h34.22.446,Motor_Task,2023.2.2,Win32,60.24096386,18.4432,19.0094,1,1,0.5547,,1,5,15,5,1,6,I,,1,,,,,,,
,,,,,,,,,,1,ESK,2024-09-24_15h34.22.446,Motor_Task,2023.2.2,Win32,60.24096386,19.0108,19.5924,3,1,0.5791,,1,6,16,6,1,7,R,,3,,,,,,,
,,,,,,,,,,1,ESK,2024-09-24_15h34.22.446,Motor_Task,2023.2.2,Win32,60.24096386,19.5931,20.0755,2,1,0.4757,,1,7,17,7,1,8,M,,2,,,,,,,
,,,,,,,,,,1,ESK,2024-09-24_15h34.22.446,Motor_Task,2023.2.2,Win32,60.24096386,20.0766,20.594,4,1,0.5087,,1,8,18,8,1,9,L,,4,,,,,,,
,,,,,,,,,,1,ESK,2024-09-24_15h34.22.446,Motor_Task,2023.2.2,Win32,60.24096386,20.5949,21.1264,1,1,0.5258,,1,9,19,9,1,10,I,,1,,,,,,,
,,,,,,,,,,1,ESK,2024-09-24_15h34.22.446,Motor_Task,2023.2.2,Win32,60.24096386,21.1271,21.6272,2,1,0.4922,,2,0,20,0,1,1,M,,2,,,,,,,
,,,,,,,,,,1,ESK,2024-09-24_15h34.22.446,Motor_Task,2023.2.2,Win32,60.24096386,21.6283,22.0936,3,1,0.458,,2,1,21,1,1,2,R,,3,,,,,,,
,,,,,,,,,,1,ESK,2024-09-24_15h34.22.446,Motor_Task,2023.2.2,Win32,60.24096386,22.0948,22.626,2,1,0.5271,,2,2,22,2,1,3,M,,2,,,,,,,
,,,,,,,,,,1,ESK,2024-09-24_15h34.22.446,Motor_Task,2023.2.2,Win32,60.24096386,22.6272,23.2424,3,1,0.6037,,2,3,23,3,1,4,R,,3,,,,,,,
,,,,,,,,,,1,ESK,2024-09-24_15h34.22.446,Motor_Task,2023.2.2,Win32,60.24096386,23.2432,23.9427,1,1,0.6872,,2,4,24,4,1,5,I,,1,,,,,,,
,,,,,,,,,,1,ESK,2024-09-24_15h34.22.446,Motor_Task,2023.2.2,Win32,60.24096386,23.9437,24.4757,1,1,0.5264,,2,5,25,5,1,6,I,,1,,,,,,,
,,,,,,,,,,1,ESK,2024-09-24_15h34.22.446,Motor_Task,2023.2.2,Win32,60.24096386,24.4768,25.0761,3,1,0.5905,,2,6,26,6,1,7,R,,3,,,,,,,
,,,,,,,,,,1,ESK,2024-09-24_15h34.22.446,Motor_Task,2023.2.2,Win32,60.24096386,25.0771,25.6081,2,1,0.5289,,2,7,27,7,1,8,M,,2,,,,,,,
,,,,,,,,,,1,ESK,2024-09-24_15h34.22.446,Motor_Task,2023.2.2,Win32,60.24096386,25.6085,26.0745,3,0,0.4644,,2,8,28,8,1,9,L,,4,,,,,,,
,,,,,,,,,,1,ESK,2024-09-24_15h34.22.446,Motor_Task,2023.2.2,Win32,60.24096386,26.0747,26.8586,1,1,0.7758,,2,9,29,9,1,10,I,,1,,,,,,,
,,,,,,,,,,1,ESK,2024-09-24_15h34.22.446,Motor_Task,2023.2.2,Win32,60.24096386,26.8598,27.3245,2,1,0.4619,,3,0,30,0,1,1,M,,2,,,,,,,
,,,,,,,,,,1,ESK,2024-09-24_15h34.22.446,Motor_Task,2023.2.2,Win32,60.24096386,27.3256,27.8281,3,1,0.5018,,3,1,31,1,1,2,R,,3,,,,,,,
,,,,,,,,,,1,ESK,2024-09-24_15h34.22.446,Motor_Task,2023.2.2,Win32,60.24096386,27.8284,28.4583,2,1,0.625,,3,2,32,2,1,3,M,,2,,,,,,,
,,,,,,,,,,1,ESK,2024-09-24_15h34.22.446,Motor_Task,2023.2.2,Win32,60.24096386,28.4596,29.0581,3,1,0.5866,,3,3,33,3,1,4,R,,3,,,,,,,
,,,,,,,,,,1,ESK,2024-09-24_15h34.22.446,Motor_Task,2023.2.2,Win32,60.24096386,29.0591,29.6913,1,1,0.6206,,3,4,34,4,1,5,I,,1,,,,,,,
,,,,,,,,,,1,ESK,2024-09-24_15h34.22.446,Motor_Task,2023.2.2,Win32,60.24096386,29.6921,30.1907,1,1,0.4867,,3,5,35,5,1,6,I,,1,,,,,,,
,,,,,,,,,,1,ESK,2024-09-24_15h34.22.446,Motor_Task,2023.2.2,Win32,60.24096386,30.1917,30.8572,3,1,0.654,,3,6,36,6,1,7,R,,3,,,,,,,
,,,,,,,,,,1,ESK,2024-09-24_15h34.22.446,Motor_Task,2023.2.2,Win32,60.24096386,30.8581,31.6916,2,1,0.8222,,3,7,37,7,1,8,M,,2,,,,,,,
,,,,,,,,,,1,ESK,2024-09-24_15h34.22.446,Motor_Task,2023.2.2,Win32,60.24096386,31.6928,32.1907,4,1,0.4947,,3,8,38,8,1,9,L,,4,,,,,,,
,,,,,,,,,,1,ESK,2024-09-24_15h34.22.446,Motor_Task,2023.2.2,Win32,60.24096386,32.1918,32.7572,1,1,0.5635,,3,9,39,9,1,10,I,,1,,,,,,,
,,,,,,,,,,1,ESK,2024-09-24_15h34.22.446,Motor_Task,2023.2.2,Win32,60.24096386,32.7589,33.207,2,1,0.4378,,4,0,40,0,1,1,M,,2,,,,,,,
,,,,,,,,,,1,ESK,2024-09-24_15h34.22.446,Motor_Task,2023.2.2,Win32,60.24096386,33.2081,33.691,3,1,0.4707,,4,1,41,1,1,2,R,,3,,,,,,,
,,,,,,,,,,1,ESK,2024-09-24_15h34.22.446,Motor_Task,2023.2.2,Win32,60.24096386,33.6923,34.2068,2,1,0.5127,,4,2,42,2,1,3,M,,2,,,,,,,
,,,,,,,,,,1,ESK,2024-09-24_15h34.22.446,Motor_Task,2023.2.2,Win32,60.24096386,34.2071,34.7902,3,1,0.5754,,4,3,43,3,1,4,R,,3,,,,,,,
,,,,,,,,,,1,ESK,2024-09-24_15h34.22.446,Motor_Task,2023.2.2,Win32,60.24096386,34.7906,35.3568,1,1,0.5582,,4,4,44,4,1,5,I,,1,,,,,,,
,,,,,,,,,,1,ESK,2024-09-24_15h34.22.446,Motor_Task,2023.2.2,Win32,60.24096386,35.3575,35.9235,1,1,0.5589,,4,5,45,5,1,6,I,,1,,,,,,,
,,,,,,,,,,1,ESK,2024-09-24_15h34.22.446,Motor_Task,2023.2.2,Win32,60.24096386,35.9239,36.5909,3,1,0.6552,,4,6,46,6,1,7,R,,3,,,,,,,
,,,,,,,,,,1,ESK,2024-09-24_15h34.22.446,Motor_Task,2023.2.2,Win32,60.24096386,36.5921,37.1568,2,1,0.5637,,4,7,47,7,1,8,M,,2,,,,,,,
,,,,,,,,,,1,ESK,2024-09-24_15h34.22.446,Motor_Task,2023.2.2,Win32,60.24096386,37.1579,37.8242,4,1,0.661,,4,8,48,8,1,9,L,,4,,,,,,,
,,,,,,,,,,1,ESK,2024-09-24_15h34.22.446,Motor_Task,2023.2.2,Win32,60.24096386,37.8253,38.3397,1,1,0.5027,,4,9,49,9,1,10,I,,1,,,,,,,
,,,,,,,,,,1,ESK,2024-09-24_15h34.22.446,Motor_Task,2023.2.2,Win32,60.24096386,38.3402,38.8072,2,1,0.4654,,5,0,50,0,1,1,M,,2,,,,,,,
,,,,,,,,,,1,ESK,2024-09-24_15h34.22.446,Motor_Task,2023.2.2,Win32,60.24096386,38.8081,39.2401,3,1,0.42,,5,1,51,1,1,2,R,,3,,,,,,,
,,,,,,,,,,1,ESK,2024-09-24_15h34.22.446,Motor_Task,2023.2.2,Win32,60.24096386,39.2408,39.7245,2,1,0.4709,,5,2,52,2,1,3,M,,2,,,,,,,
,,,,,,,,,,1,ESK,2024-09-24_15h34.22.446,Motor_Task,2023.2.2,Win32,60.24096386,39.7253,40.2108,3,1,0.4849,,5,3,53,3,1,4,R,,3,,,,,,,
,,,,,,,,,,1,ESK,2024-09-24_15h34.22.446,Motor_Task,2023.2.2,Win32,60.24096386,40.2114,40.7235,1,1,0.5083,,5,4,54,4,1,5,I,,1,,,,,,,
,,,,,,,,,,1,ESK,2024-09-24_15h34.22.446,Motor_Task,2023.2.2,Win32,60.24096386,40.7244,41.3393,1,1,0.6089,,5,5,55,5,1,6,I,,1,,,,,,,
,,,,,,,,,,1,ESK,2024-09-24_15h34.22.446,Motor_Task,2023.2.2,Win32,60.24096386,41.3396,41.9239,3,1,0.5771,,5,6,56,6,1,7,R,,3,,,,,,,
,,,,,,,,,,1,ESK,2024-09-24_15h34.22.446,Motor_Task,2023.2.2,Win32,60.24096386,41.9249,42.3737,2,1,0.4366,,5,7,57,7,1,8,M,,2,,,,,,,
,,,,,,,,,,1,ESK,2024-09-24_15h34.22.446,Motor_Task,2023.2.2,Win32,60.24096386,42.3747,42.8059,3,0,0.4206,,5,8,58,8,1,9,L,,4,,,,,,,
,,,,,,,,,,1,ESK,2024-09-24_15h34.22.446,Motor_Task,2023.2.2,Win32,60.24096386,42.807,43.1234,4,0,0.3038,,5,9,59,9,1,10,I,,1,,,,,,,
,,,,,,,,,,1,ESK,2024-09-24_15h34.22.446,Motor_Task,2023.2.2,Win32,60.24096386,43.1245,43.8393,2,1,0.7046,,6,0,60,0,1,1,M,,2,,,,,,,
,,,,,,,,,,1,ESK,2024-09-24_15h34.22.446,Motor_Task,2023.2.2,Win32,60.24096386,43.8408,44.4228,3,1,0.5709,,6,1,61,1,1,2,R,,3,,,,,,,
,,,,,,,,,,1,ESK,2024-09-24_15h34.22.446,Motor_Task,2023.2.2,Win32,60.24096386,44.424,44.9396,2,1,0.5032,,6,2,62,2,1,3,M,,2,,,,,,,
,,,,,,,,,,1,ESK,2024-09-24_15h34.22.446,Motor_Task,2023.2.2,Win32,60.24096386,44.9408,45.5392,3,1,0.5923,,6,3,63,3,1,4,R,,3,,,,,,,
,,,,,,,,,,1,ESK,2024-09-24_15h34.22.446,Motor_Task,2023.2.2,Win32,60.24096386,45.54,46.0559,1,1,0.5152,,6,4,64,4,1,5,I,,1,,,,,,,
,,,,,,,,,,1,ESK,2024-09-24_15h34.22.446,Motor_Task,2023.2.2,Win32,60.24096386,46.0566,46.5392,1,1,0.4818,,6,5,65,5,1,6,I,,1,,,,,,,
,,,,,,,,,,1,ESK,2024-09-24_15h34.22.446,Motor_Task,2023.2.2,Win32,60.24096386,46.5398,47.0722,3,1,0.5256,,6,6,66,6,1,7,R,,3,,,,,,,
,,,,,,,,,,1,ESK,2024-09-24_15h34.22.446,Motor_Task,2023.2.2,Win32,60.24096386,47.0736,47.5569,2,1,0.471,,6,7,67,7,1,8,M,,2,,,,,,,
,,,,,,,,,,1,ESK,2024-09-24_15h34.22.446,Motor_Task,2023.2.2,Win32,60.24096386,47.558,48.1558,4,1,0.5932,,6,8,68,8,1,9,L,,4,,,,,,,
,,,,,,,,,,1,ESK,2024-09-24_15h34.22.446,Motor_Task,2023.2.2,Win32,60.24096386,48.1569,48.6725,1,1,0.5036,,6,9,69,9,1,10,I,,1,,,,,,,
,,,,,,,,,,1,ESK,2024-09-24_15h34.22.446,Motor_Task,2023.2.2,Win32,60.24096386,48.6735,49.1717,2,1,0.4959,,7,0,70,0,1,1,M,,2,,,,,,,
,,,,,,,,,,1,ESK,2024-09-24_15h34.22.446,Motor_Task,2023.2.2,Win32,60.24096386,49.1721,49.7883,3,1,0.6052,,7,1,71,1,1,2,R,,3,,,,,,,
,,,,,,,,,,1,ESK,2024-09-24_15h34.22.446,Motor_Task,2023.2.2,Win32,60.24096386,49.7895,50.3388,2,1,0.5446,,7,2,72,2,1,3,M,,2,,,,,,,
,,,,,,,,,,1,ESK,2024-09-24_15h34.22.446,Motor_Task,2023.2.2,Win32,60.24096386,50.3402,50.9891,3,1,0.6372,,7,3,73,3,1,4,R,,3,,,,,,,
,,,,,,,,,,1,ESK,2024-09-24_15h34.22.446,Motor_Task,2023.2.2,Win32,60.24096386,50.9902,51.5049,1,1,0.5019,,7,4,74,4,1,5,I,,1,,,,,,,
,,,,,,,,,,1,ESK,2024-09-24_15h34.22.446,Motor_Task,2023.2.2,Win32,60.24096386,51.5061,52.0059,1,1,0.4864,,7,5,75,5,1,6,I,,1,,,,,,,
,,,,,,,,,,1,ESK,2024-09-24_15h34.22.446,Motor_Task,2023.2.2,Win32,60.24096386,52.0069,52.5224,3,1,0.506,,7,6,76,6,1,7,R,,3,,,,,,,
,,,,,,,,,,1,ESK,2024-09-24_15h34.22.446,Motor_Task,2023.2.2,Win32,60.24096386,52.5235,52.9891,2,1,0.4608,,7,7,77,7,1,8,M,,2,,,,,,,
,,,,,,,,,,1,ESK,2024-09-24_15h34.22.446,Motor_Task,2023.2.2,Win32,60.24096386,52.9899,53.555,4,1,0.5541,,7,8,78,8,1,9,L,,4,,,,,,,
,,,,,,,,,,1,ESK,2024-09-24_15h34.22.446,Motor_Task,2023.2.2,Win32,60.24096386,53.5558,54.0394,1,1,0.474,,7,9,79,9,1,10,I,,1,,,,,,,
,,,,,,,,,,1,ESK,2024-09-24_15h34.22.446,Motor_Task,2023.2.2,Win32,60.24096386,54.0403,54.5047,2,1,0.4609,,8,0,80,0,1,1,M,,2,,,,,,,
,,,,,,,,,,1,ESK,2024-09-24_15h34.22.446,Motor_Task,2023.2.2,Win32,60.24096386,54.5053,55.0218,3,1,0.5124,,8,1,81,1,1,2,R,,3,,,,,,,
,,,,,,,,,,1,ESK,2024-09-24_15h34.22.446,Motor_Task,2023.2.2,Win32,60.24096386,55.0229,55.6062,2,1,0.5768,,8,2,82,2,1,3,M,,2,,,,,,,
,,,,,,,,,,1,ESK,2024-09-24_15h34.22.446,Motor_Task,2023.2.2,Win32,60.24096386,55.607,56.3212,3,1,0.7024,,8,3,83,3,1,4,R,,3,,,,,,,
,,,,,,,,,,1,ESK,2024-09-24_15h34.22.446,Motor_Task,2023.2.2,Win32,60.24096386,56.3221,56.9053,1,1,0.5727,,8,4,84,4,1,5,I,,1,,,,,,,
,,,,,,,,,,1,ESK,2024-09-24_15h34.22.446,Motor_Task,2023.2.2,Win32,60.24096386,56.9066,57.4541,1,1,0.535,,8,5,85,5,1,6,I,,1,,,,,,,
,,,,,,,,,,1,ESK,2024-09-24_15h34.22.446,Motor_Task,2023.2.2,Win32,60.24096386,57.4555,58.0873,3,1,0.6197,,8,6,86,6,1,7,R,,3,,,,,,,
,,,,,,,,,,1,ESK,2024-09-24_15h34.22.446,Motor_Task,2023.2.2,Win32,60.24096386,58.0874,58.5545,2,1,0.4551,,8,7,87,7,1,8,M,,2,,,,,,,
,,,,,,,,,,1,ESK,2024-09-24_15h34.22.446,Motor_Task,2023.2.2,Win32,60.24096386,58.5558,59.1871,4,1,0.6287,,8,8,88,8,1,9,L,,4,,,,,,,
,,,,,,,,,,1,ESK,2024-09-24_15h34.22.446,Motor_Task,2023.2.2,Win32,60.24096386,59.1873,59.6716,1,1,0.4732,,8,9,89,9,1,10,I,,1,,,,,,,
,,,,,,,,,,1,ESK,2024-09-24_15h34.22.446,Motor_Task,2023.2.2,Win32,60.24096386,59.6727,60.3743,2,1,0.701,,9,0,90,0,1,1,M,,2,,,,,,,
,,,,,,,,,,1,ESK,2024-09-24_15h34.22.446,Motor_Task,2023.2.2,Win32,60.24096386,60.3744,60.8201,3,1,0.4336,,9,1,91,1,1,2,R,,3,,,,,,,
,,,,,,,,,,1,ESK,2024-09-24_15h34.22.446,Motor_Task,2023.2.2,Win32,60.24096386,60.8212,61.4252,2,1,0.6037,,9,2,92,2,1,3,M,,2,,,,,,,
,,,,,,,,,,1,ESK,2024-09-24_15h34.22.446,Motor_Task,2023.2.2,Win32,60.24096386,61.4254,62.0203,3,1,0.5867,,9,3,93,3,1,4,R,,3,,,,,,,
,,,,,,,,,,1,ESK,2024-09-24_15h34.22.446,Motor_Task,2023.2.2,Win32,60.24096386,62.0213,62.6209,1,1,0.5889,,9,4,94,4,1,5,I,,1,,,,,,,
,,,,,,,,,,1,ESK,2024-09-24_15h34.22.446,Motor_Task,2023.2.2,Win32,60.24096386,62.6222,63.0874,1,1,0.4608,,9,5,95,5,1,6,I,,1,,,,,,,
,,,,,,,,,,1,ESK,2024-09-24_15h34.22.446,Motor_Task,2023.2.2,Win32,60.24096386,63.0885,63.6864,3,1,0.5864,,9,6,96,6,1,7,R,,3,,,,,,,
,,,,,,,,,,1,ESK,2024-09-24_15h34.22.446,Motor_Task,2023.2.2,Win32,60.24096386,63.6875,64.2034,2,1,0.5029,,9,7,97,7,1,8,M,,2,,,,,,,
,,,,,,,,,,1,ESK,2024-09-24_15h34.22.446,Motor_Task,2023.2.2,Win32,60.24096386,64.2044,64.7699,4,1,0.5639,,9,8,98,8,1,9,L,,4,,,,,,,
,,,,,,,,,,1,ESK,2024-09-24_15h34.22.446,Motor_Task,2023.2.2,Win32,60.24096386,64.7711,65.2865,1,1,0.5076,,9,9,99,9,1,10,I,,1,,,,,,,
,,,,,,,,,,1,ESK,2024-09-24_15h34.22.446,Motor_Task,2023.2.2,Win32,60.24096386,65.2877,65.7528,2,1,0.4554,,10,0,100,0,1,1,M,,2,,,,,,,
,,,,,,,,,,1,ESK,2024-09-24_15h34.22.446,Motor_Task,2023.2.2,Win32,60.24096386,65.7539,66.2194,3,1,0.4552,,10,1,101,1,1,2,R,,3,,,,,,,
,,,,,,,,,,1,ESK,2024-09-24_15h34.22.446,Motor_Task,2023.2.2,Win32,60.24096386,66.2207,66.7192,2,1,0.4908,,10,2,102,2,1,3,M,,2,,,,,,,
,,,,,,,,,,1,ESK,2024-09-24_15h34.22.446,Motor_Task,2023.2.2,Win32,60.24096386,66.7202,67.3362,3,1,0.6101,,10,3,103,3,1,4,R,,3,,,,,,,
,,,,,,,,,,1,ESK,2024-09-24_15h34.22.446,Motor_Task,2023.2.2,Win32,60.24096386,67.3371,67.8865,1,1,0.5381,,10,4,104,4,1,5,I,,1,,,,,,,
,,,,,,,,,,1,ESK,2024-09-24_15h34.22.446,Motor_Task,2023.2.2,Win32,60.24096386,67.8877,68.39,1,1,0.5018,,10,5,105,5,1,6,I,,1,,,,,,,
,,,,,,,,,,1,ESK,2024-09-24_15h34.22.446,Motor_Task,2023.2.2,Win32,60.24096386,68.3902,68.9358,3,1,0.5337,,10,6,106,6,1,7,R,,3,,,,,,,
,,,,,,,,,,1,ESK,2024-09-24_15h34.22.446,Motor_Task,2023.2.2,Win32,60.24096386,68.937,69.4027,2,1,0.4559,,10,7,107,7,1,8,M,,2,,,,,,,
,,,,,,,,,,1,ESK,2024-09-24_15h34.22.446,Motor_Task,2023.2.2,Win32,60.24096386,69.404,70.0354,4,1,0.6252,,10,8,108,8,1,9,L,,4,,,,,,,
,,,,,,,,,,1,ESK,2024-09-24_15h34.22.446,Motor_Task,2023.2.2,Win32,60.24096386,70.0363,70.5188,1,1,0.4748,,10,9,109,9,1,10,I,,1,,,,,,,
,,,,,,,,,,1,ESK,2024-09-24_15h34.22.446,Motor_Task,2023.2.2,Win32,60.24096386,70.5196,71.0188,2,1,0.494,,11,0,110,0,1,1,M,,2,,,,,,,
,,,,,,,,,,1,ESK,2024-09-24_15h34.22.446,Motor_Task,2023.2.2,Win32,60.24096386,71.0197,71.4853,3,1,0.4648,,11,1,111,1,1,2,R,,3,,,,,,,
,,,,,,,,,,1,ESK,2024-09-24_15h34.22.446,Motor_Task,2023.2.2,Win32,60.24096386,71.4871,72.0524,2,1,0.5579,,11,2,112,2,1,3,M,,2,,,,,,,
,,,,,,,,,,1,ESK,2024-09-24_15h34.22.446,Motor_Task,2023.2.2,Win32,60.24096386,72.0541,72.6533,3,1,0.5886,,11,3,113,3,1,4,R,,3,,,,,,,
,,,,,,,,,,1,ESK,2024-09-24_15h34.22.446,Motor_Task,2023.2.2,Win32,60.24096386,72.6541,73.1361,1,1,0.4761,,11,4,114,4,1,5,I,,1,,,,,,,
,,,,,,,,,,1,ESK,2024-09-24_15h34.22.446,Motor_Task,2023.2.2,Win32,60.24096386,73.1374,73.6027,1,1,0.4599,,11,5,115,5,1,6,I,,1,,,,,,,
,,,,,,,,,,1,ESK,2024-09-24_15h34.22.446,Motor_Task,2023.2.2,Win32,60.24096386,73.604,74.1697,3,1,0.5526,,11,6,116,6,1,7,R,,3,,,,,,,
,,,,,,,,,,1,ESK,2024-09-24_15h34.22.446,Motor_Task,2023.2.2,Win32,60.24096386,74.1706,74.6536,2,1,0.4749,,11,7,117,7,1,8,M,,2,,,,,,,
,,,,,,,,,,1,ESK,2024-09-24_15h34.22.446,Motor_Task,2023.2.2,Win32,60.24096386,74.6545,75.2522,4,1,0.5911,,11,8,118,8,1,9,L,,4,,,,,,,
,,,,,,,,,,1,ESK,2024-09-24_15h34.22.446,Motor_Task,2023.2.2,Win32,60.24096386,75.2534,75.7862,1,1,0.523,,11,9,119,9,1,10,I,,1,,,,,,,
,,,,,,,,,,1,ESK,2024-09-24_15h34.22.446,Motor_Task,2023.2.2,Win32,60.24096386,75.7873,76.2527,2,1,0.453,,12,0,120,0,1,1,M,,2,,,,,,,
,,,,,,,,,,1,ESK,2024-09-24_15h34.22.446,Motor_Task,2023.2.2,Win32,60.24096386,76.2537,76.7195,3,1,0.4527,,12,1,121,1,1,2,R,,3,,,,,,,
,,,,,,,,,,1,ESK,2024-09-24_15h34.22.446,Motor_Task,2023.2.2,Win32,60.24096386,76.7208,77.2522,2,1,0.5195,,12,2,122,2,1,3,M,,2,,,,,,,
,,,,,,,,,,1,ESK,2024-09-24_15h34.22.446,Motor_Task,2023.2.2,Win32,60.24096386,77.2533,77.7692,3,1,0.5059,,12,3,123,3,1,4,R,,3,,,,,,,
,,,,,,,,,,1,ESK,2024-09-24_15h34.22.446,Motor_Task,2023.2.2,Win32,60.24096386,77.7705,78.3019,1,1,0.5286,,12,4,124,4,1,5,I,,1,,,,,,,
,,,,,,,,,,1,ESK,2024-09-24_15h34.22.446,Motor_Task,2023.2.2,Win32,60.24096386,78.3031,78.8685,1,1,0.5598,,12,5,125,5,1,6,I,,1,,,,,,,
,,,,,,,,,,1,ESK,2024-09-24_15h34.22.446,Motor_Task,2023.2.2,Win32,60.24096386,78.8698,79.369,3,1,0.498,,12,6,126,6,1,7,R,,3,,,,,,,
,,,,,,,,,,1,ESK,2024-09-24_15h34.22.446,Motor_Task,2023.2.2,Win32,60.24096386,79.3701,79.8688,2,1,0.4936,,12,7,127,7,1,8,M,,2,,,,,,,
,,,,,,,,,,1,ESK,2024-09-24_15h34.22.446,Motor_Task,2023.2.2,Win32,60.24096386,79.8699,80.5182,4,1,0.6439,,12,8,128,8,1,9,L,,4,,,,,,,
,,,,,,,,,,1,ESK,2024-09-24_15h34.22.446,Motor_Task,2023.2.2,Win32,60.24096386,80.5194,80.9719,1,1,0.4521,,12,9,129,9,1,10,I,,1,,,,,,,
,,,,,,,,,,1,ESK,2024-09-24_15h34.22.446,Motor_Task,2023.2.2,Win32,60.24096386,80.9722,81.4345,2,1,0.4538,,13,0,130,0,1,1,M,,2,,,,,,,
,,,,,,,,,,1,ESK,2024-09-24_15h34.22.446,Motor_Task,2023.2.2,Win32,60.24096386,81.4357,81.9204,3,1,0.4841,,13,1,131,1,1,2,R,,3,,,,,,,
,,,,,,,,,,1,ESK,2024-09-24_15h34.22.446,Motor_Task,2023.2.2,Win32,60.24096386,81.9206,82.4344,2,1,0.5062,,13,2,132,2,1,3,M,,2,,,,,,,
,,,,,,,,,,1,ESK,2024-09-24_15h34.22.446,Motor_Task,2023.2.2,Win32,60.24096386,82.4356,82.9511,3,1,0.5053,,13,3,133,3,1,4,R,,3,,,,,,,
,,,,,,,,,,1,ESK,2024-09-24_15h34.22.446,Motor_Task,2023.2.2,Win32,60.24096386,82.9519,83.5005,1,1,0.5364,,13,4,134,4,1,5,I,,1,,,,,,,
,,,,,,,,,,1,ESK,2024-09-24_15h34.22.446,Motor_Task,2023.2.2,Win32,60.24096386,83.5012,83.951,1,1,0.4382,,13,5,135,5,1,6,I,,1,,,,,,,
,,,,,,,,,,1,ESK,2024-09-24_15h34.22.446,Motor_Task,2023.2.2,Win32,60.24096386,83.9521,84.4672,3,1,0.5135,,13,6,136,6,1,7,R,,3,,,,,,,
,,,,,,,,,,1,ESK,2024-09-24_15h34.22.446,Motor_Task,2023.2.2,Win32,60.24096386,84.4681,84.9508,2,1,0.4811,,13,7,137,7,1,8,M,,2,,,,,,,
,,,,,,,,,,1,ESK,2024-09-24_15h34.22.446,Motor_Task,2023.2.2,Win32,60.24096386,84.9516,85.5018,4,1,0.5404,,13,8,138,8,1,9,L,,4,,,,,,,
,,,,,,,,,,1,ESK,2024-09-24_15h34.22.446,Motor_Task,2023.2.2,Win32,60.24096386,85.5027,85.9683,1,1,0.4571,,13,9,139,9,1,10,I,,1,,,,,,,
,,,,,,,,,,1,ESK,2024-09-24_15h34.22.446,Motor_Task,2023.2.2,Win32,60.24096386,85.9693,86.4347,2,1,0.4526,,14,0,140,0,1,1,M,,2,,,,,,,
,,,,,,,,,,1,ESK,2024-09-24_15h34.22.446,Motor_Task,2023.2.2,Win32,60.24096386,86.4359,86.8509,3,1,0.4132,,14,1,141,1,1,2,R,,3,,,,,,,
,,,,,,,,,,1,ESK,2024-09-24_15h34.22.446,Motor_Task,2023.2.2,Win32,60.24096386,86.8523,87.3514,2,1,0.4872,,14,2,142,2,1,3,M,,2,,,,,,,
,,,,,,,,,,1,ESK,2024-09-24_15h34.22.446,Motor_Task,2023.2.2,Win32,60.24096386,87.3523,87.8515,3,1,0.4943,,14,3,143,3,1,4,R,,3,,,,,,,
,,,,,,,,,,1,ESK,2024-09-24_15h34.22.446,Motor_Task,2023.2.2,Win32,60.24096386,87.8526,88.4048,1,1,0.5515,,14,4,144,4,1,5,I,,1,,,,,,,
,,,,,,,,,,1,ESK,2024-09-24_15h34.22.446,Motor_Task,2023.2.2,Win32,60.24096386,88.4052,88.851,1,1,0.4344,,14,5,145,5,1,6,I,,1,,,,,,,
,,,,,,,,,,1,ESK,2024-09-24_15h34.22.446,Motor_Task,2023.2.2,Win32,60.24096386,88.8523,89.4216,3,1,0.5685,,14,6,146,6,1,7,R,,3,,,,,,,
,,,,,,,,,,1,ESK,2024-09-24_15h34.22.446,Motor_Task,2023.2.2,Win32,60.24096386,89.4222,89.8514,2,1,0.4186,,14,7,147,7,1,8,M,,2,,,,,,,
,,,,,,,,,,1,ESK,2024-09-24_15h34.22.446,Motor_Task,2023.2.2,Win32,60.24096386,89.8523,90.3515,4,1,0.491,,14,8,148,8,1,9,L,,4,,,,,,,
,,,,,,,,,,1,ESK,2024-09-24_15h34.22.446,Motor_Task,2023.2.2,Win32,60.24096386,90.3524,90.7698,1,1,0.4167,,14,9,149,9,1,10,I,,1,,,,,,,
,,,,,,,,,,1,ESK,2024-09-24_15h34.22.446,Motor_Task,2023.2.2,Win32,60.24096386,90.7704,91.2342,2,1,0.4561,,15,0,150,0,1,1,M,,2,,,,,,,
,,,,,,,,,,1,ESK,2024-09-24_15h34.22.446,Motor_Task,2023.2.2,Win32,60.24096386,91.2352,91.6542,3,1,0.4182,,15,1,151,1,1,2,R,,3,,,,,,,
,,,,,,,,,,1,ESK,2024-09-24_15h34.22.446,Motor_Task,2023.2.2,Win32,60.24096386,91.655,92.2336,2,1,0.5697,,15,2,152,2,1,3,M,,2,,,,,,,
,,,,,,,,,,1,ESK,2024-09-24_15h34.22.446,Motor_Task,2023.2.2,Win32,60.24096386,92.2346,92.7537,3,1,0.5184,,15,3,153,3,1,4,R,,3,,,,,,,
,,,,,,,,,,1,ESK,2024-09-24_15h34.22.446,Motor_Task,2023.2.2,Win32,60.24096386,92.7542,93.3001,1,1,0.5334,,15,4,154,4,1,5,I,,1,,,,,,,
,,,,,,,,,,1,ESK,2024-09-24_15h34.22.446,Motor_Task,2023.2.2,Win32,60.24096386,93.3012,93.783,1,1,0.4765,,15,5,155,5,1,6,I,,1,,,,,,,
,,,,,,,,,,1,ESK,2024-09-24_15h34.22.446,Motor_Task,2023.2.2,Win32,60.24096386,93.7842,94.1505,1,0,0.353,,15,6,156,6,1,7,R,,3,,,,,,,
,,,,,,,,,,1,ESK,2024-09-24_15h34.22.446,Motor_Task,2023.2.2,Win32,60.24096386,94.1517,94.8702,2,1,0.7179,,15,7,157,7,1,8,M,,2,,,,,,,
,,,,,,,,,,1,ESK,2024-09-24_15h34.22.446,Motor_Task,2023.2.2,Win32,60.24096386,94.8707,95.5369,4,1,0.6656,,15,8,158,8,1,9,L,,4,,,,,,,
,,,,,,,,,,1,ESK,2024-09-24_15h34.22.446,Motor_Task,2023.2.2,Win32,60.24096386,95.5375,96.0008,1,1,0.4528,,15,9,159,9,1,10,I,,1,,,,,,,
,,,,,,,,,,1,ESK,2024-09-24_15h34.22.446,Motor_Task,2023.2.2,Win32,60.24096386,96.0019,96.4164,2,1,0.4026,,16,0,160,0,1,1,M,,2,,,,,,,
,,,,,,,,,,1,ESK,2024-09-24_15h34.22.446,Motor_Task,2023.2.2,Win32,60.24096386,96.4177,96.8501,3,1,0.4197,,16,1,161,1,1,2,R,,3,,,,,,,
,,,,,,,,,,1,ESK,2024-09-24_15h34.22.446,Motor_Task,2023.2.2,Win32,60.24096386,96.8515,97.3005,2,1,0.4477,,16,2,162,2,1,3,M,,2,,,,,,,
,,,,,,,,,,1,ESK,2024-09-24_15h34.22.446,Motor_Task,2023.2.2,Win32,60.24096386,97.3013,97.8333,3,1,0.5213,,16,3,163,3,1,4,R,,3,,,,,,,
,,,,,,,,,,1,ESK,2024-09-24_15h34.22.446,Motor_Task,2023.2.2,Win32,60.24096386,97.8345,98.3158,1,1,0.4761,,16,4,164,4,1,5,I,,1,,,,,,,
,,,,,,,,,,1,ESK,2024-09-24_15h34.22.446,Motor_Task,2023.2.2,Win32,60.24096386,98.3174,98.8151,1,1,0.4959,,16,5,165,5,1,6,I,,1,,,,,,,
,,,,,,,,,,1,ESK,2024-09-24_15h34.22.446,Motor_Task,2023.2.2,Win32,60.24096386,98.8164,99.3156,3,1,0.4874,,16,6,166,6,1,7,R,,3,,,,,,,
,,,,,,,,,,1,ESK,2024-09-24_15h34.22.446,Motor_Task,2023.2.2,Win32,60.24096386,99.3167,99.7821,2,1,0.456,,16,7,167,7,1,8,M,,2,,,,,,,
,,,,,,,,,,1,ESK,2024-09-24_15h34.22.446,Motor_Task,2023.2.2,Win32,60.24096386,99.7831,100.265,4,1,0.4776,,16,8,168,8,1,9,L,,4,,,,,,,
,,,,,,,,,,1,ESK,2024-09-24_15h34.22.446,Motor_Task,2023.2.2,Win32,60.24096386,100.2656,100.7317,1,1,0.4574,,16,9,169,9,1,10,I,,1,,,,,,,
,,,,,,,,,,1,ESK,2024-09-24_15h34.22.446,Motor_Task,2023.2.2,Win32,60.24096386,100.7326,101.1207,2,1,0.3874,,17,0,170,0,1,1,M,,2,,,,,,,
,,,,,,,,,,1,ESK,2024-09-24_15h34.22.446,Motor_Task,2023.2.2,Win32,60.24096386,101.1213,101.5989,3,1,0.4708,,17,1,171,1,1,2,R,,3,,,,,,,
,,,,,,,,,,1,ESK,2024-09-24_15h34.22.446,Motor_Task,2023.2.2,Win32,60.24096386,101.6002,102.0821,2,1,0.4779,,17,2,172,2,1,3,M,,2,,,,,,,
,,,,,,,,,,1,ESK,2024-09-24_15h34.22.446,Motor_Task,2023.2.2,Win32,60.24096386,102.083,102.5817,3,1,0.4942,,17,3,173,3,1,4,R,,3,,,,,,,
,,,,,,,,,,1,ESK,2024-09-24_15h34.22.446,Motor_Task,2023.2.2,Win32,60.24096386,102.583,103.0652,1,1,0.4757,,17,4,174,4,1,5,I,,1,,,,,,,
,,,,,,,,,,1,ESK,2024-09-24_15h34.22.446,Motor_Task,2023.2.2,Win32,60.24096386,103.0665,103.6661,1,1,0.5859,,17,5,175,5,1,6,I,,1,,,,,,,
,,,,,,,,,,1,ESK,2024-09-24_15h34.22.446,Motor_Task,2023.2.2,Win32,60.24096386,103.6672,104.1489,3,1,0.4738,,17,6,176,6,1,7,R,,3,,,,,,,
,,,,,,,,,,1,ESK,2024-09-24_15h34.22.446,Motor_Task,2023.2.2,Win32,60.24096386,104.15,104.5652,2,1,0.4099,,17,7,177,7,1,8,M,,2,,,,,,,
,,,,,,,,,,1,ESK,2024-09-24_15h34.22.446,Motor_Task,2023.2.2,Win32,60.24096386,104.5664,105.1154,4,1,0.5363,,17,8,178,8,1,9,L,,4,,,,,,,
,,,,,,,,,,1,ESK,2024-09-24_15h34.22.446,Motor_Task,2023.2.2,Win32,60.24096386,105.1166,105.5661,1,1,0.445,,17,9,179,9,1,10,I,,1,,,,,,,
,,,,,,,,,,1,ESK,2024-09-24_15h34.22.446,Motor_Task,2023.2.2,Win32,60.24096386,105.5673,106.032,2,1,0.4526,,18,0,180,0,1,1,M,,2,,,,,,,
,,,,,,,,,,1,ESK,2024-09-24_15h34.22.446,Motor_Task,2023.2.2,Win32,60.24096386,106.033,106.5986,3,1,0.5563,,18,1,181,1,1,2,R,,3,,,,,,,
,,,,,,,,,,1,ESK,2024-09-24_15h34.22.446,Motor_Task,2023.2.2,Win32,60.24096386,106.6,107.1028,2,1,0.502,,18,2,182,2,1,3,M,,2,,,,,,,
,,,,,,,,,,1,ESK,2024-09-24_15h34.22.446,Motor_Task,2023.2.2,Win32,60.24096386,107.1035,107.682,3,1,0.5758,,18,3,183,3,1,4,R,,3,,,,,,,
,,,,,,,,,,1,ESK,2024-09-24_15h34.22.446,Motor_Task,2023.2.2,Win32,60.24096386,107.683,108.269,1,1,0.5849,,18,4,184,4,1,5,I,,1,,,,,,,
,,,,,,,,,,1,ESK,2024-09-24_15h34.22.446,Motor_Task,2023.2.2,Win32,60.24096386,108.2695,108.7679,1,1,0.4975,,18,5,185,5,1,6,I,,1,,,,,,,
,,,,,,,,,,1,ESK,2024-09-24_15h34.22.446,Motor_Task,2023.2.2,Win32,60.24096386,108.7683,109.3148,3,1,0.5366,,18,6,186,6,1,7,R,,3,,,,,,,
,,,,,,,,,,1,ESK,2024-09-24_15h34.22.446,Motor_Task,2023.2.2,Win32,60.24096386,109.3159,109.7988,2,1,0.4696,,18,7,187,7,1,8,M,,2,,,,,,,
,,,,,,,,,,1,ESK,2024-09-24_15h34.22.446,Motor_Task,2023.2.2,Win32,60.24096386,109.7998,110.2477,4,1,0.4458,,18,8,188,8,1,9,L,,4,,,,,,,
,,,,,,,,,,1,ESK,2024-09-24_15h34.22.446,Motor_Task,2023.2.2,Win32,60.24096386,110.2488,110.7143,1,1,0.453,,18,9,189,9,1,10,I,,1,,,,,,,
,,,,,,,,,,1,ESK,2024-09-24_15h34.22.446,Motor_Task,2023.2.2,Win32,60.24096386,110.7155,111.1485,2,1,0.4273,,19,0,190,0,1,1,M,,2,,,,,,,
,,,,,,,,,,1,ESK,2024-09-24_15h34.22.446,Motor_Task,2023.2.2,Win32,60.24096386,111.1495,111.6146,3,1,0.4591,,19,1,191,1,1,2,R,,3,,,,,,,
,,,,,,,,,,1,ESK,2024-09-24_15h34.22.446,Motor_Task,2023.2.2,Win32,60.24096386,111.6158,112.0977,2,1,0.4713,,19,2,192,2,1,3,M,,2,,,,,,,
,,,,,,,,,,1,ESK,2024-09-24_15h34.22.446,Motor_Task,2023.2.2,Win32,60.24096386,112.0988,112.6976,3,1,0.5978,,19,3,193,3,1,4,R,,3,,,,,,,
,,,,,,,,,,1,ESK,2024-09-24_15h34.22.446,Motor_Task,2023.2.2,Win32,60.24096386,112.6985,113.1637,1,1,0.4539,,19,4,194,4,1,5,I,,1,,,,,,,
,,,,,,,,,,1,ESK,2024-09-24_15h34.22.446,Motor_Task,2023.2.2,Win32,60.24096386,113.1649,113.6802,1,1,0.5037,,19,5,195,5,1,6,I,,1,,,,,,,
,,,,,,,,,,1,ESK,2024-09-24_15h34.22.446,Motor_Task,2023.2.2,Win32,60.24096386,113.6813,114.2303,3,1,0.5377,,19,6,196,6,1,7,R,,3,,,,,,,
,,,,,,,,,,1,ESK,2024-09-24_15h34.22.446,Motor_Task,2023.2.2,Win32,60.24096386,114.2318,114.6965,2,1,0.4558,,19,7,197,7,1,8,M,,2,,,,,,,
,,,,,,,,,,1,ESK,2024-09-24_15h34.22.446,Motor_Task,2023.2.2,Win32,60.24096386,114.6977,115.2801,4,1,0.576,,19,8,198,8,1,9,L,,4,,,,,,,
,,,,,,,,,,1,ESK,2024-09-24_15h34.22.446,Motor_Task,2023.2.2,Win32,60.24096386,115.281,115.7963,1,1,0.5046,,19,9,199,9,1,10,I,,1,,,,,,,
,,,,,,,,,,1,ESK,2024-09-24_15h34.22.446,Motor_Task,2023.2.2,Win32,60.24096386,115.8053,116.2962,2,1,0.4884,,,,,,,8,M,,2,0,0,0,7,1,,
,,,,,,,,,,1,ESK,2024-09-24_15h34.22.446,Motor_Task,2023.2.2,Win32,60.24096386,116.2975,116.6965,3,1,0.3871,,,,,,,4,R,,3,0,1,1,3,1,,
,,,,,,,,,,1,ESK,2024-09-24_15h34.22.446,Motor_Task,2023.2.2,Win32,60.24096386,116.6975,117.235,2,1,0.5365,,,,,,,3,M,,2,0,2,2,2,1,,
,,,,,,,,,,1,ESK,2024-09-24_15h34.22.446,Motor_Task,2023.2.2,Win32,60.24096386,117.2355,117.7138,1,1,0.474,,,,,,,10,I,,1,0,3,3,9,1,,
,,,,,,,,,,1,ESK,2024-09-24_15h34.22.446,Motor_Task,2023.2.2,Win32,60.24096386,117.715,118.1464,3,1,0.4289,,,,,,,2,R,,3,0,4,4,1,1,,
,,,,,,,,,,1,ESK,2024-09-24_15h34.22.446,Motor_Task,2023.2.2,Win32,60.24096386,118.1467,118.78,4,1,0.6309,,,,,,,9,L,,4,0,5,5,8,1,,
,,,,,,,,,,1,ESK,2024-09-24_15h34.22.446,Motor_Task,2023.2.2,Win32,60.24096386,118.7814,119.2509,1,1,0.4684,,,,,,,5,I,,1,0,6,6,4,1,,
,,,,,,,,,,1,ESK,2024-09-24_15h34.22.446,Motor_Task,2023.2.2,Win32,60.24096386,119.2515,119.8305,3,1,0.5662,,,,,,,7,R,,3,0,7,7,6,1,,
,,,,,,,,,,1,ESK,2024-09-24_15h34.22.446,Motor_Task,2023.2.2,Win32,60.24096386,119.8317,120.2631,2,1,0.4295,,,,,,,1,M,,2,0,8,8,0,1,,
,,,,,,,,,,1,ESK,2024-09-24_15h34.22.446,Motor_Task,2023.2.2,Win32,60.24096386,120.2642,120.8632,1,1,0.5873,,,,,,,6,I,,1,0,9,9,5,1,,
,,,,,,,,,,1,ESK,2024-09-24_15h34.22.446,Motor_Task,2023.2.2,Win32,60.24096386,120.8646,121.3967,3,1,0.5188,,,,,,,4,R,,3,1,0,10,3,1,,
,,,,,,,,,,1,ESK,2024-09-24_15h34.22.446,Motor_Task,2023.2.2,Win32,60.24096386,121.3979,122.0476,1,1,0.6383,,,,,,,10,I,,1,1,1,11,9,1,,
,,,,,,,,,,1,ESK,2024-09-24_15h34.22.446,Motor_Task,2023.2.2,Win32,60.24096386,122.0487,122.613,4,1,0.5623,,,,,,,9,L,,4,1,2,12,8,1,,
,,,,,,,,,,1,ESK,2024-09-24_15h34.22.446,Motor_Task,2023.2.2,Win32,60.24096386,122.6145,123.1458,2,1,0.5295,,,,,,,3,M,,2,1,3,13,2,1,,
,,,,,,,,,,1,ESK,2024-09-24_15h34.22.446,Motor_Task,2023.2.2,Win32,60.24096386,123.1469,123.7131,2,1,0.563,,,,,,,8,M,,2,1,4,14,7,1,,
,,,,,,,,,,1,ESK,2024-09-24_15h34.22.446,Motor_Task,2023.2.2,Win32,60.24096386,123.7142,124.1963,3,1,0.4694,,,,,,,7,R,,3,1,5,15,6,1,,
,,,,,,,,,,1,ESK,2024-09-24_15h34.22.446,Motor_Task,2023.2.2,Win32,60.24096386,124.1977,124.68,1,1,0.4692,,,,,,,6,I,,1,1,6,16,5,1,,
,,,,,,,,,,1,ESK,2024-09-24_15h34.22.446,Motor_Task,2023.2.2,Win32,60.24096386,124.6812,125.1628,2,1,0.4742,,,,,,,1,M,,2,1,7,17,0,1,,
,,,,,,,,,,1,ESK,2024-09-24_15h34.22.446,Motor_Task,2023.2.2,Win32,60.24096386,125.1638,125.6455,3,1,0.4764,,,,,,,2,R,,3,1,8,18,1,1,,
,,,,,,,,,,1,ESK,2024-09-24_15h34.22.446,Motor_Task,2023.2.2,Win32,60.24096386,125.6463,126.1625,1,1,0.5115,,,,,,,5,I,,1,1,9,19,4,1,,
,,,,,,,,,,1,ESK,2024-09-24_15h34.22.446,Motor_Task,2023.2.2,Win32,60.24096386,126.1635,126.6956,3,1,0.5278,,,,,,,2,R,,3,2,0,20,1,1,,
,,,,,,,,,,1,ESK,2024-09-24_15h34.22.446,Motor_Task,2023.2.2,Win32,60.24096386,126.6965,127.1794,2,1,0.4746,,,,,,,1,M,,2,2,1,21,0,1,,
,,,,,,,,,,1,ESK,2024-09-24_15h34.22.446,Motor_Task,2023.2.2,Win32,60.24096386,127.1806,127.7797,1,1,0.5863,,,,,,,5,I,,1,2,2,22,4,1,,
,,,,,,,,,,1,ESK,2024-09-24_15h34.22.446,Motor_Task,2023.2.2,Win32,60.24096386,127.7807,128.3455,3,1,0.559,,,,,,,4,R,,3,2,3,23,3,1,,
,,,,,,,,,,1,ESK,2024-09-24_15h34.22.446,Motor_Task,2023.2.2,Win32,60.24096386,128.3463,129.0119,1,1,0.6545,,,,,,,6,I,,1,2,4,24,5,1,,
,,,,,,,,,,1,ESK,2024-09-24_15h34.22.446,Motor_Task,2023.2.2,Win32,60.24096386,129.013,129.5613,1,1,0.5397,,,,,,,10,I,,1,2,5,25,9,1,,
,,,,,,,,,,1,ESK,2024-09-24_15h34.22.446,Motor_Task,2023.2.2,Win32,60.24096386,129.5627,130.2779,3,1,0.7081,,,,,,,7,R,,3,2,6,26,6,1,,
,,,,,,,,,,1,ESK,2024-09-24_15h34.22.446,Motor_Task,2023.2.2,Win32,60.24096386,130.279,132.6832,2,1,2.4034,,,,,,,8,M,,2,2,7,27,7,1,,
,,,,,,,,,,1,ESK,2024-09-24_15h34.22.446,Motor_Task,2023.2.2,Win32,60.24096386,132.6837,133.1957,2,1,0.5001,,,,,,,3,M,,2,2,8,28,2,1,,
,,,,,,,,,,1,ESK,2024-09-24_15h34.22.446,Motor_Task,2023.2.2,Win32,60.24096386,133.1966,133.7114,4,1,0.5091,,,,,,,9,L,,4,2,9,29,8,1,,
,,,,,,,,,,1,ESK,2024-09-24_15h34.22.446,Motor_Task,2023.2.2,Win32,60.24096386,133.7124,134.3113,3,1,0.5868,,,,,,,2,R,,3,3,0,30,1,1,,
,,,,,,,,,,1,ESK,2024-09-24_15h34.22.446,Motor_Task,2023.2.2,Win32,60.24096386,134.313,134.778,2,0,0.4612,,,,,,,4,R,,3,3,1,31,3,1,,
,,,,,,,,,,1,ESK,2024-09-24_15h34.22.446,Motor_Task,2023.2.2,Win32,60.24096386,134.7789,135.4281,1,1,0.648,,,,,,,5,I,,1,3,2,32,4,1,,
,,,,,,,,,,1,ESK,2024-09-24_15h34.22.446,Motor_Task,2023.2.2,Win32,60.24096386,135.4295,135.9446,2,1,0.505,,,,,,,1,M,,2,3,3,33,0,1,,
,,,,,,,,,,1,ESK,2024-09-24_15h34.22.446,Motor_Task,2023.2.2,Win32,60.24096386,135.9459,136.5125,3,1,0.558,,,,,,,7,R,,3,3,4,34,6,1,,
,,,,,,,,,,1,ESK,2024-09-24_15h34.22.446,Motor_Task,2023.2.2,Win32,60.24096386,136.5134,137.0785,2,1,0.5524,,,,,,,3,M,,2,3,5,35,2,1,,
,,,,,,,,,,1,ESK,2024-09-24_15h34.22.446,Motor_Task,2023.2.2,Win32,60.24096386,137.0799,137.5616,2,1,0.4716,,,,,,,8,M,,2,3,6,36,7,1,,
,,,,,,,,,,1,ESK,2024-09-24_15h34.22.446,Motor_Task,2023.2.2,Win32,60.24096386,137.5626,138.1115,1,1,0.5423,,,,,,,10,I,,1,3,7,37,9,1,,
,,,,,,,,,,1,ESK,2024-09-24_15h34.22.446,Motor_Task,2023.2.2,Win32,60.24096386,138.1125,138.6286,1,1,0.5033,,,,,,,6,I,,1,3,8,38,5,1,,
,,,,,,,,,,1,ESK,2024-09-24_15h34.22.446,Motor_Task,2023.2.2,Win32,60.24096386,138.6294,139.1777,4,1,0.5386,,,,,,,9,L,,4,3,9,39,8,1,,
,,,,,,,,,,1,ESK,2024-09-24_15h34.22.446,Motor_Task,2023.2.2,Win32,60.24096386,139.1788,139.9108,2,1,0.7223,,,,,,,1,M,,2,4,0,40,0,1,,
,,,,,,,,,,1,ESK,2024-09-24_15h34.22.446,Motor_Task,2023.2.2,Win32,60.24096386,139.9121,140.4442,2,1,0.5243,,,,,,,3,M,,2,4,1,41,2,1,,
,,,,,,,,,,1,ESK,2024-09-24_15h34.22.446,Motor_Task,2023.2.2,Win32,60.24096386,140.4454,141.1813,1,1,0.7349,,,,,,,10,I,,1,4,2,42,9,1,,
,,,,,,,,,,1,ESK,2024-09-24_15h34.22.446,Motor_Task,2023.2.2,Win32,60.24096386,141.1818,141.9606,4,1,0.7662,,,,,,,9,L,,4,4,3,43,8,1,,
,,,,,,,,,,1,ESK,2024-09-24_15h34.22.446,Motor_Task,2023.2.2,Win32,60.24096386,141.9619,142.5107,1,1,0.5366,,,,,,,6,I,,1,4,4,44,5,1,,
,,,,,,,,,,1,ESK,2024-09-24_15h34.22.446,Motor_Task,2023.2.2,Win32,60.24096386,142.5119,143.1933,3,1,0.6706,,,,,,,7,R,,3,4,5,45,6,1,,
,,,,,,,,,,1,ESK,2024-09-24_15h34.22.446,Motor_Task,2023.2.2,Win32,60.24096386,143.1946,143.7102,3,1,0.5145,,,,,,,4,R,,3,4,6,46,3,1,,
,,,,,,,,,,1,ESK,2024-09-24_15h34.22.446,Motor_Task,2023.2.2,Win32,60.24096386,143.7112,144.31,1,1,0.5911,,,,,,,5,I,,1,4,7,47,4,1,,
,,,,,,,,,,1,ESK,2024-09-24_15h34.22.446,Motor_Task,2023.2.2,Win32,60.24096386,144.3111,144.8106,2,1,0.4882,,,,,,,8,M,,2,4,8,48,7,1,,
,,,,,,,,,,1,ESK,2024-09-24_15h34.22.446,Motor_Task,2023.2.2,Win32,60.24096386,144.812,145.3262,3,1,0.5027,,,,,,,2,R,,3,4,9,49,1,1,,
,,,,,,,,,,1,ESK,2024-09-24_15h34.22.446,Motor_Task,2023.2.2,Win32,60.24096386,,,,,,,,,,,,,,,,,,,,,145.3272,149.3262