Trigger.started,Trigger.stopped,key_resp_4.keys,key_resp_4.rt,key_resp_4.duration,mouse.x,mouse.y,mouse.leftButton,mouse.midButton,mouse.rightButton,Session,Subject,date,expName,psychopyVersion,OS,frameRate,complex_block.started,complex_block.stopped,key_resp.keys,key_resp.corr,key_resp.rt,key_resp.duration,complex_block_loop.thisRepN,complex_block_loop.thisTrialN,complex_block_loop.thisN,complex_block_loop.thisIndex,complex_block_loop.ran,trial,finger,markerPos,correctResp,new_block_loop.thisRepN,new_block_loop.thisTrialN,new_block_loop.thisN,new_block_loop.thisIndex,new_block_loop.ran,endBuffer.started,endBuffer.stopped
0.0007,86.8313,2,86.3827,,-0.017443576,-0.062239583,0,0,0,1,JJ,2024-09-24_15h32.47.025,Motor_Task,2023.2.2,MacIntel,59.97361161,,,,,,,,,,,,,,,,,,,,,,
,,,,,,,,,,1,JJ,2024-09-24_15h32.47.025,Motor_Task,2023.2.2,MacIntel,59.97361161,86.8823,87.6482,2,1,0.7618,,0,0,0,0,1,1,M,,2,,,,,,,
,,,,,,,,,,1,JJ,2024-09-24_15h32.47.025,Motor_Task,2023.2.2,MacIntel,59.97361161,87.6495,88.1515,3,1,0.5002,,0,1,1,1,1,2,R,,3,,,,,,,
,,,,,,,,,,1,JJ,2024-09-24_15h32.47.025,Motor_Task,2023.2.2,MacIntel,59.97361161,88.1525,88.6947,2,1,0.5412,,0,2,2,2,1,3,M,,2,,,,,,,
,,,,,,,,,,1,JJ,2024-09-24_15h32.47.025,Motor_Task,2023.2.2,MacIntel,59.97361161,88.6955,89.145,3,1,0.4474,,0,3,3,3,1,4,R,,3,,,,,,,
,,,,,,,,,,1,JJ,2024-09-24_15h32.47.025,Motor_Task,2023.2.2,MacIntel,59.97361161,89.1472,89.6475,1,1,0.4984,,0,4,4,4,1,5,I,,1,,,,,,,
,,,,,,,,,,1,JJ,2024-09-24_15h32.47.025,Motor_Task,2023.2.2,MacIntel,59.97361161,89.6484,90.1865,1,1,0.5353,,0,5,5,5,1,6,I,,1,,,,,,,
,,,,,,,,,,1,JJ,2024-09-24_15h32.47.025,Motor_Task,2023.2.2,MacIntel,59.97361161,90.1884,90.7259,3,1,0.5353,,0,6,6,6,1,7,R,,3,,,,,,,
,,,,,,,,,,1,JJ,2024-09-24_15h32.47.025,Motor_Task,2023.2.2,MacIntel,59.97361161,90.7279,91.2238,2,1,0.4948,,0,7,7,7,1,8,M,,2,,,,,,,
,,,,,,,,,,1,JJ,2024-09-24_15h32.47.025,Motor_Task,2023.2.2,MacIntel,59.97361161,91.2242,91.7443,4,1,0.5195,,0,8,8,8,1,9,L,,4,,,,,,,
,,,,,,,,,,1,JJ,2024-09-24_15h32.47.025,Motor_Task,2023.2.2,MacIntel,59.97361161,91.7448,92.278,1,1,0.5323,,0,9,9,9,1,10,I,,1,,,,,,,
,,,,,,,,,,1,JJ,2024-09-24_15h32.47.025,Motor_Task,2023.2.2,MacIntel,59.97361161,92.2787,92.7548,2,1,0.4745,,1,0,10,0,1,1,M,,2,,,,,,,
,,,,,,,,,,1,JJ,2024-09-24_15h32.47.025,Motor_Task,2023.2.2,MacIntel,59.97361161,92.7562,93.2394,3,1,0.4801,,1,1,11,1,1,2,R,,3,,,,,,,
,,,,,,,,,,1,JJ,2024-09-24_15h32.47.025,Motor_Task,2023.2.2,MacIntel,59.97361161,93.2411,93.7095,2,1,0.4672,,1,2,12,2,1,3,M,,2,,,,,,,
,,,,,,,,,,1,JJ,2024-09-24_15h32.47.025,Motor_Task,2023.2.2,MacIntel,59.97361161,93.7099,94.1681,3,1,0.4569,,1,3,13,3,1,4,R,,3,,,,,,,
,,,,,,,,,,1,JJ,2024-09-24_15h32.47.025,Motor_Task,2023.2.2,MacIntel,59.97361161,94.1692,94.6808,1,1,0.5106,,1,4,14,4,1,5,I,,1,,,,,,,
,,,,,,,,,,1,JJ,2024-09-24_15h32.47.025,Motor_Task,2023.2.2,MacIntel,59.97361161,94.6813,95.2204,1,1,0.5383,,1,5,15,5,1,6,I,,1,,,,,,,
,,,,,,,,,,1,JJ,2024-09-24_15h32.47.025,Motor_Task,2023.2.2,MacIntel,59.97361161,95.221,95.714,3,1,0.492,,1,6,16,6,1,7,R,,3,,,,,,,
,,,,,,,,,,1,JJ,2024-09-24_15h32.47.025,Motor_Task,2023.2.2,MacIntel,59.97361161,95.7149,96.2152,2,1,0.498,,1,7,17,7,1,8,M,,2,,,,,,,
,,,,,,,,,,1,JJ,2024-09-24_15h32.47.025,Motor_Task,2023.2.2,MacIntel,59.97361161,96.2167,96.7845,4,1,0.5659,,1,8,18,8,1,9,L,,4,,,,,,,
,,,,,,,,,,1,JJ,2024-09-24_15h32.47.025,Motor_Task,2023.2.2,MacIntel,59.97361161,96.7855,97.3613,1,1,0.5746,,1,9,19,9,1,10,I,,1,,,,,,,
,,,,,,,,,,1,JJ,2024-09-24_15h32.47.025,Motor_Task,2023.2.2,MacIntel,59.97361161,97.3623,97.8598,2,1,0.4967,,2,0,20,0,1,1,M,,2,,,,,,,
,,,,,,,,,,1,JJ,2024-09-24_15h32.47.025,Motor_Task,2023.2.2,MacIntel,59.97361161,97.8603,98.3875,3,1,0.5266,,2,1,21,1,1,2,R,,3,,,,,,,
,,,,,,,,,,1,JJ,2024-09-24_15h32.47.025,Motor_Task,2023.2.2,MacIntel,59.97361161,98.388,98.924,2,1,0.5352,,2,2,22,2,1,3,M,,2,,,,,,,
,,,,,,,,,,1,JJ,2024-09-24_15h32.47.025,Motor_Task,2023.2.2,MacIntel,59.97361161,98.9246,99.4138,3,1,0.4876,,2,3,23,3,1,4,R,,3,,,,,,,
,,,,,,,,,,1,JJ,2024-09-24_15h32.47.025,Motor_Task,2023.2.2,MacIntel,59.97361161,99.4152,99.9398,1,1,0.5228,,2,4,24,4,1,5,I,,1,,,,,,,
,,,,,,,,,,1,JJ,2024-09-24_15h32.47.025,Motor_Task,2023.2.2,MacIntel,59.97361161,99.941,100.5005,1,1,0.5577,,2,5,25,5,1,6,I,,1,,,,,,,
,,,,,,,,,,1,JJ,2024-09-24_15h32.47.025,Motor_Task,2023.2.2,MacIntel,59.97361161,100.5018,101.1996,2,0,0.6969,,2,6,26,6,1,7,R,,3,,,,,,,
,,,,,,,,,,1,JJ,2024-09-24_15h32.47.025,Motor_Task,2023.2.2,MacIntel,59.97361161,101.2003,101.246,3,0,0.0448,,2,7,27,7,1,8,M,,2,,,,,,,
,,,,,,,,,,1,JJ,2024-09-24_15h32.47.025,Motor_Task,2023.2.2,MacIntel,59.97361161,101.2466,102.0006,4,1,0.753,,2,8,28,8,1,9,L,,4,,,,,,,
,,,,,,,,,,1,JJ,2024-09-24_15h32.47.025,Motor_Task,2023.2.2,MacIntel,59.97361161,102.0013,102.5669,1,1,0.565,,2,9,29,9,1,10,I,,1,,,,,,,
,,,,,,,,,,1,JJ,2024-09-24_15h32.47.025,Motor_Task,2023.2.2,MacIntel,59.97361161,102.5674,103.0999,2,1,0.5317,,3,0,30,0,1,1,M,,2,,,,,,,
,,,,,,,,,,1,JJ,2024-09-24_15h32.47.025,Motor_Task,2023.2.2,MacIntel,59.97361161,103.101,104.2816,3,1,1.1793,,3,1,31,1,1,2,R,,3,,,,,,,
,,,,,,,,,,1,JJ,2024-09-24_15h32.47.025,Motor_Task,2023.2.2,MacIntel,59.97361161,104.2828,104.8453,2,1,0.5604,,3,2,32,2,1,3,M,,2,,,,,,,
,,,,,,,,,,1,JJ,2024-09-24_15h32.47.025,Motor_Task,2023.2.2,MacIntel,59.97361161,104.8463,105.3392,3,1,0.491,,3,3,33,3,1,4,R,,3,,,,,,,
,,,,,,,,,,1,JJ,2024-09-24_15h32.47.025,Motor_Task,2023.2.2,MacIntel,59.97361161,105.3404,105.9694,1,1,0.628,,3,4,34,4,1,5,I,,1,,,,,,,
,,,,,,,,,,1,JJ,2024-09-24_15h32.47.025,Motor_Task,2023.2.2,MacIntel,59.97361161,105.971,106.5236,1,1,0.5515,,3,5,35,5,1,6,I,,1,,,,,,,
,,,,,,,,,,1,JJ,2024-09-24_15h32.47.025,Motor_Task,2023.2.2,MacIntel,59.97361161,106.5242,107.1531,3,1,0.6272,,3,6,36,6,1,7,R,,3,,,,,,,
,,,,,,,,,,1,JJ,2024-09-24_15h32.47.025,Motor_Task,2023.2.2,MacIntel,59.97361161,107.1545,107.7997,2,1,0.6436,,3,7,37,7,1,8,M,,2,,,,,,,
,,,,,,,,,,1,JJ,2024-09-24_15h32.47.025,Motor_Task,2023.2.2,MacIntel,59.97361161,107.8005,108.424,4,1,0.6223,,3,8,38,8,1,9,L,,4,,,,,,,
,,,,,,,,,,1,JJ,2024-09-24_15h32.47.025,Motor_Task,2023.2.2,MacIntel,59.97361161,108.4248,108.998,1,1,0.572,,3,9,39,9,1,10,I,,1,,,,,,,
,,,,,,,,,,1,JJ,2024-09-24_15h32.47.025,Motor_Task,2023.2.2,MacIntel,59.97361161,108.9987,109.5616,2,1,0.5571,,4,0,40,0,1,1,M,,2,,,,,,,
,,,,,,,,,,1,JJ,2024-09-24_15h32.47.025,Motor_Task,2023.2.2,MacIntel,59.97361161,109.5627,110.0625,3,1,0.498,,4,1,41,1,1,2,R,,3,,,,,,,
,,,,,,,,,,1,JJ,2024-09-24_15h32.47.025,Motor_Task,2023.2.2,MacIntel,59.97361161,110.0638,110.6107,1,0,0.5439,,4,2,42,2,1,3,M,,2,,,,,,,
,,,,,,,,,,1,JJ,2024-09-24_15h32.47.025,Motor_Task,2023.2.2,MacIntel,59.97361161,110.6119,111.3109,3,1,0.6971,,4,3,43,3,1,4,R,,3,,,,,,,
,,,,,,,,,,1,JJ,2024-09-24_15h32.47.025,Motor_Task,2023.2.2,MacIntel,59.97361161,111.3121,111.8996,1,1,0.5866,,4,4,44,4,1,5,I,,1,,,,,,,
,,,,,,,,,,1,JJ,2024-09-24_15h32.47.025,Motor_Task,2023.2.2,MacIntel,59.97361161,111.9,112.4705,1,1,0.5685,,4,5,45,5,1,6,I,,1,,,,,,,
,,,,,,,,,,1,JJ,2024-09-24_15h32.47.025,Motor_Task,2023.2.2,MacIntel,59.97361161,112.4717,113.073,3,1,0.5997,,4,6,46,6,1,7,R,,3,,,,,,,
,,,,,,,,,,1,JJ,2024-09-24_15h32.47.025,Motor_Task,2023.2.2,MacIntel,59.97361161,113.0742,113.6157,2,1,0.5404,,4,7,47,7,1,8,M,,2,,,,,,,
,,,,,,,,,,1,JJ,2024-09-24_15h32.47.025,Motor_Task,2023.2.2,MacIntel,59.97361161,113.6163,114.1888,4,1,0.5709,,4,8,48,8,1,9,L,,4,,,,,,,
,,,,,,,,,,1,JJ,2024-09-24_15h32.47.025,Motor_Task,2023.2.2,MacIntel,59.97361161,114.1897,114.7074,1,1,0.5159,,4,9,49,9,1,10,I,,1,,,,,,,
,,,,,,,,,,1,JJ,2024-09-24_15h32.47.025,Motor_Task,2023.2.2,MacIntel,59.97361161,114.7084,115.2215,2,1,0.5117,,5,0,50,0,1,1,M,,2,,,,,,,
,,,,,,,,,,1,JJ,2024-09-24_15h32.47.025,Motor_Task,2023.2.2,MacIntel,59.97361161,115.2228,115.8129,3,1,0.5887,,5,1,51,1,1,2,R,,3,,,,,,,
,,,,,,,,,,1,JJ,2024-09-24_15h32.47.025,Motor_Task,2023.2.2,MacIntel,59.97361161,115.8142,116.3555,2,1,0.5393,,5,2,52,2,1,3,M,,2,,,,,,,
,,,,,,,,,,1,JJ,2024-09-24_15h32.47.025,Motor_Task,2023.2.2,MacIntel,59.97361161,116.3565,116.856,3,1,0.4978,,5,3,53,3,1,4,R,,3,,,,,,,
,,,,,,,,,,1,JJ,2024-09-24_15h32.47.025,Motor_Task,2023.2.2,MacIntel,59.97361161,116.8571,117.3968,1,1,0.5389,,5,4,54,4,1,5,I,,1,,,,,,,
,,,,,,,,,,1,JJ,2024-09-24_15h32.47.025,Motor_Task,2023.2.2,MacIntel,59.97361161,117.3972,117.9446,1,1,0.5463,,5,5,55,5,1,6,I,,1,,,,,,,
,,,,,,,,,,1,JJ,2024-09-24_15h32.47.025,Motor_Task,2023.2.2,MacIntel,59.97361161,117.9452,118.5062,3,1,0.5593,,5,6,56,6,1,7,R,,3,,,,,,,
,,,,,,,,,,1,JJ,2024-09-24_15h32.47.025,Motor_Task,2023.2.2,MacIntel,59.97361161,118.5079,119.0122,2,1,0.5031,,5,7,57,7,1,8,M,,2,,,,,,,
,,,,,,,,,,1,JJ,2024-09-24_15h32.47.025,Motor_Task,2023.2.2,MacIntel,59.97361161,119.0128,119.5587,4,1,0.5441,,5,8,58,8,1,9,L,,4,,,,,,,
,,,,,,,,,,1,JJ,2024-09-24_15h32.47.025,Motor_Task,2023.2.2,MacIntel,59.97361161,119.5597,120.1012,1,1,0.5396,,5,9,59,9,1,10,I,,1,,,,,,,
,,,,,,,,,,1,JJ,2024-09-24_15h32.47.025,Motor_Task,2023.2.2,MacIntel,59.97361161,120.1025,120.7197,2,1,0.6155,,6,0,60,0,1,1,M,,2,,,,,,,
,,,,,,,,,,1,JJ,2024-09-24_15h32.47.025,Motor_Task,2023.2.2,MacIntel,59.97361161,120.7208,121.3567,3,1,0.6351,,6,1,61,1,1,2,R,,3,,,,,,,
,,,,,,,,,,1,JJ,2024-09-24_15h32.47.025,Motor_Task,2023.2.2,MacIntel,59.97361161,121.3571,122.0108,2,1,0.6518,,6,2,62,2,1,3,M,,2,,,,,,,
,,,,,,,,,,1,JJ,2024-09-24_15h32.47.025,Motor_Task,2023.2.2,MacIntel,59.97361161,122.0124,122.5082,3,1,0.4948,,6,3,63,3,1,4,R,,3,,,,,,,
,,,,,,,,,,1,JJ,2024-09-24_15h32.47.025,Motor_Task,2023.2.2,MacIntel,59.97361161,122.5087,123.1142,1,1,0.6043,,6,4,64,4,1,5,I,,1,,,,,,,
,,,,,,,,,,1,JJ,2024-09-24_15h32.47.025,Motor_Task,2023.2.2,MacIntel,59.97361161,123.1147,123.6574,1,1,0.5414,,6,5,65,5,1,6,I,,1,,,,,,,
,,,,,,,,,,1,JJ,2024-09-24_15h32.47.025,Motor_Task,2023.2.2,MacIntel,59.97361161,123.6582,124.2023,3,1,0.5425,,6,6,66,6,1,7,R,,3,,,,,,,
,,,,,,,,,,1,JJ,2024-09-24_15h32.47.025,Motor_Task,2023.2.2,MacIntel,59.97361161,124.2032,124.8344,2,1,0.6297,,6,7,67,7,1,8,M,,2,,,,,,,
,,,,,,,,,,1,JJ,2024-09-24_15h32.47.025,Motor_Task,2023.2.2,MacIntel,59.97361161,124.836,125.4797,4,1,0.6417,,6,8,68,8,1,9,L,,4,,,,,,,
,,,,,,,,,,1,JJ,2024-09-24_15h32.47.025,Motor_Task,2023.2.2,MacIntel,59.97361161,125.4808,125.9913,1,1,0.5096,,6,9,69,9,1,10,I,,1,,,,,,,
,,,,,,,,,,1,JJ,2024-09-24_15h32.47.025,Motor_Task,2023.2.2,MacIntel,59.97361161,125.9916,126.5932,2,1,0.6003,,7,0,70,0,1,1,M,,2,,,,,,,
,,,,,,,,,,1,JJ,2024-09-24_15h32.47.025,Motor_Task,2023.2.2,MacIntel,59.97361161,126.5943,127.3018,3,1,0.7061,,7,1,71,1,1,2,R,,3,,,,,,,
,,,,,,,,,,1,JJ,2024-09-24_15h32.47.025,Motor_Task,2023.2.2,MacIntel,59.97361161,127.303,127.8913,3,0,0.5872,,7,2,72,2,1,3,M,,2,,,,,,,
,,,,,,,,,,1,JJ,2024-09-24_15h32.47.025,Motor_Task,2023.2.2,MacIntel,59.97361161,127.892,127.9487,2,0,0.0544,,7,3,73,3,1,4,R,,3,,,,,,,
,,,,,,,,,,1,JJ,2024-09-24_15h32.47.025,Motor_Task,2023.2.2,MacIntel,59.97361161,127.95,128.6236,1,1,0.6728,,7,4,74,4,1,5,I,,1,,,,,,,
,,,,,,,,,,1,JJ,2024-09-24_15h32.47.025,Motor_Task,2023.2.2,MacIntel,59.97361161,128.624,129.1819,1,1,0.5523,,7,5,75,5,1,6,I,,1,,,,,,,
,,,,,,,,,,1,JJ,2024-09-24_15h32.47.025,Motor_Task,2023.2.2,MacIntel,59.97361161,129.1826,129.7579,3,1,0.5745,,7,6,76,6,1,7,R,,3,,,,,,,
,,,,,,,,,,1,JJ,2024-09-24_15h32.47.025,Motor_Task,2023.2.2,MacIntel,59.97361161,129.7584,130.2776,2,1,0.5187,,7,7,77,7,1,8,M,,2,,,,,,,
,,,,,,,,,,1,JJ,2024-09-24_15h32.47.025,Motor_Task,2023.2.2,MacIntel,59.97361161,130.2781,130.9509,4,1,0.6716,,7,8,78,8,1,9,L,,4,,,,,,,
,,,,,,,,,,1,JJ,2024-09-24_15h32.47.025,Motor_Task,2023.2.2,MacIntel,59.97361161,130.9516,131.4764,1,1,0.5242,,7,9,79,9,1,10,I,,1,,,,,,,
,,,,,,,,,,1,JJ,2024-09-24_15h32.47.025,Motor_Task,2023.2.2,MacIntel,59.97361161,131.4769,132.0167,2,1,0.5386,,8,0,80,0,1,1,M,,2,,,,,,,
,,,,,,,,,,1,JJ,2024-09-24_15h32.47.025,Motor_Task,2023.2.2,MacIntel,59.97361161,132.0177,132.5707,3,1,0.5514,,8,1,81,1,1,2,R,,3,,,,,,,
,,,,,,,,,,1,JJ,2024-09-24_15h32.47.025,Motor_Task,2023.2.2,MacIntel,59.97361161,132.572,133.1993,2,1,0.6257,,8,2,82,2,1,3,M,,2,,,,,,,
,,,,,,,,,,1,JJ,2024-09-24_15h32.47.025,Motor_Task,2023.2.2,MacIntel,59.97361161,133.2004,133.6667,3,1,0.4641,,8,3,83,3,1,4,R,,3,,,,,,,
,,,,,,,,,,1,JJ,2024-09-24_15h32.47.025,Motor_Task,2023.2.2,MacIntel,59.97361161,133.6679,134.2244,1,1,0.5513,,8,4,84,4,1,5,I,,1,,,,,,,
,,,,,,,,,,1,JJ,2024-09-24_15h32.47.025,Motor_Task,2023.2.2,MacIntel,59.97361161,134.2253,134.7742,1,1,0.5481,,8,5,85,5,1,6,I,,1,,,,,,,
,,,,,,,,,,1,JJ,2024-09-24_15h32.47.025,Motor_Task,2023.2.2,MacIntel,59.97361161,134.7747,135.3505,3,1,0.5742,,8,6,86,6,1,7,R,,3,,,,,,,
,,,,,,,,,,1,JJ,2024-09-24_15h32.47.025,Motor_Task,2023.2.2,MacIntel,59.97361161,135.3514,135.8867,2,1,0.5344,,8,7,87,7,1,8,M,,2,,,,,,,
,,,,,,,,,,1,JJ,2024-09-24_15h32.47.025,Motor_Task,2023.2.2,MacIntel,59.97361161,135.8872,136.4812,4,1,0.5928,,8,8,88,8,1,9,L,,4,,,,,,,
,,,,,,,,,,1,JJ,2024-09-24_15h32.47.025,Motor_Task,2023.2.2,MacIntel,59.97361161,136.4823,136.9986,1,1,0.5148,,8,9,89,9,1,10,I,,1,,,,,,,
,,,,,,,,,,1,JJ,2024-09-24_15h32.47.025,Motor_Task,2023.2.2,MacIntel,59.97361161,136.9998,137.4794,2,1,0.4786,,9,0,90,0,1,1,M,,2,,,,,,,
,,,,,,,,,,1,JJ,2024-09-24_15h32.47.025,Motor_Task,2023.2.2,MacIntel,59.97361161,137.4802,138.0376,3,1,0.556,,9,1,91,1,1,2,R,,3,,,,,,,
,,,,,,,,,,1,JJ,2024-09-24_15h32.47.025,Motor_Task,2023.2.2,MacIntel,59.97361161,138.0385,138.4854,2,1,0.4455,,9,2,92,2,1,3,M,,2,,,,,,,
,,,,,,,,,,1,JJ,2024-09-24_15h32.47.025,Motor_Task,2023.2.2,MacIntel,59.97361161,138.4868,138.9848,3,1,0.4966,,9,3,93,3,1,4,R,,3,,,,,,,
,,,,,,,,,,1,JJ,2024-09-24_15h32.47.025,Motor_Task,2023.2.2,MacIntel,59.97361161,138.9859,139.4455,1,1,0.4578,,9,4,94,4,1,5,I,,1,,,,,,,
,,,,,,,,,,1,JJ,2024-09-24_15h32.47.025,Motor_Task,2023.2.2,MacIntel,59.97361161,139.4461,139.999,1,1,0.5523,,9,5,95,5,1,6,I,,1,,,,,,,
,,,,,,,,,,1,JJ,2024-09-24_15h32.47.025,Motor_Task,2023.2.2,MacIntel,59.97361161,139.9994,140.5766,4,0,0.5766,,9,6,96,6,1,7,R,,3,,,,,,,
,,,,,,,,,,1,JJ,2024-09-24_15h32.47.025,Motor_Task,2023.2.2,MacIntel,59.97361161,140.577,141.389,2,1,0.8115,,9,7,97,7,1,8,M,,2,,,,,,,
,,,,,,,,,,1,JJ,2024-09-24_15h32.47.025,Motor_Task,2023.2.2,MacIntel,59.97361161,141.3894,142.11,4,1,0.7189,,9,8,98,8,1,9,L,,4,,,,,,,
,,,,,,,,,,1,JJ,2024-09-24_15h32.47.025,Motor_Task,2023.2.2,MacIntel,59.97361161,142.1108,142.6554,1,1,0.5438,,9,9,99,9,1,10,I,,1,,,,,,,
,,,,,,,,,,1,JJ,2024-09-24_15h32.47.025,Motor_Task,2023.2.2,MacIntel,59.97361161,142.6558,143.2604,2,1,0.6027,,10,0,100,0,1,1,M,,2,,,,,,,
,,,,,,,,,,1,JJ,2024-09-24_15h32.47.025,Motor_Task,2023.2.2,MacIntel,59.97361161,143.2617,143.7691,3,1,0.5063,,10,1,101,1,1,2,R,,3,,,,,,,
,,,,,,,,,,1,JJ,2024-09-24_15h32.47.025,Motor_Task,2023.2.2,MacIntel,59.97361161,143.7695,144.339,2,1,0.5687,,10,2,102,2,1,3,M,,2,,,,,,,
,,,,,,,,,,1,JJ,2024-09-24_15h32.47.025,Motor_Task,2023.2.2,MacIntel,59.97361161,144.3395,144.8236,3,1,0.4828,,10,3,103,3,1,4,R,,3,,,,,,,
,,,,,,,,,,1,JJ,2024-09-24_15h32.47.025,Motor_Task,2023.2.2,MacIntel,59.97361161,144.8245,145.3612,1,1,0.5359,,10,4,104,4,1,5,I,,1,,,,,,,
,,,,,,,,,,1,JJ,2024-09-24_15h32.47.025,Motor_Task,2023.2.2,MacIntel,59.97361161,145.3624,145.9532,1,1,0.5902,,10,5,105,5,1,6,I,,1,,,,,,,
,,,,,,,,,,1,JJ,2024-09-24_15h32.47.025,Motor_Task,2023.2.2,MacIntel,59.97361161,145.9538,146.5507,3,1,0.5959,,10,6,106,6,1,7,R,,3,,,,,,,
,,,,,,,,,,1,JJ,2024-09-24_15h32.47.025,Motor_Task,2023.2.2,MacIntel,59.97361161,146.5514,147.0688,2,1,0.516,,10,7,107,7,1,8,M,,2,,,,,,,
,,,,,,,,,,1,JJ,2024-09-24_15h32.47.025,Motor_Task,2023.2.2,MacIntel,59.97361161,147.07,147.6462,4,1,0.574,,10,8,108,8,1,9,L,,4,,,,,,,
,,,,,,,,,,1,JJ,2024-09-24_15h32.47.025,Motor_Task,2023.2.2,MacIntel,59.97361161,147.6475,148.1947,1,1,0.5463,,10,9,109,9,1,10,I,,1,,,,,,,
,,,,,,,,,,1,JJ,2024-09-24_15h32.47.025,Motor_Task,2023.2.2,MacIntel,59.97361161,148.1951,148.7415,2,1,0.5458,,11,0,110,0,1,1,M,,2,,,,,,,
,,,,,,,,,,1,JJ,2024-09-24_15h32.47.025,Motor_Task,2023.2.2,MacIntel,59.97361161,148.742,149.2396,3,1,0.4961,,11,1,111,1,1,2,R,,3,,,,,,,
,,,,,,,,,,1,JJ,2024-09-24_15h32.47.025,Motor_Task,2023.2.2,MacIntel,59.97361161,149.2409,149.7858,2,1,0.5433,,11,2,112,2,1,3,M,,2,,,,,,,
,,,,,,,,,,1,JJ,2024-09-24_15h32.47.025,Motor_Task,2023.2.2,MacIntel,59.97361161,149.7867,150.4141,3,1,0.6255,,11,3,113,3,1,4,R,,3,,,,,,,
,,,,,,,,,,1,JJ,2024-09-24_15h32.47.025,Motor_Task,2023.2.2,MacIntel,59.97361161,150.4154,150.9725,1,1,0.5551,,11,4,114,4,1,5,I,,1,,,,,,,
,,,,,,,,,,1,JJ,2024-09-24_15h32.47.025,Motor_Task,2023.2.2,MacIntel,59.97361161,150.9737,151.5384,1,1,0.5629,,11,5,115,5,1,6,I,,1,,,,,,,
,,,,,,,,,,1,JJ,2024-09-24_15h32.47.025,Motor_Task,2023.2.2,MacIntel,59.97361161,151.5398,152.0951,3,1,0.5543,,11,6,116,6,1,7,R,,3,,,,,,,
,,,,,,,,,,1,JJ,2024-09-24_15h32.47.025,Motor_Task,2023.2.2,MacIntel,59.97361161,152.0955,152.6097,2,1,0.5135,,11,7,117,7,1,8,M,,2,,,,,,,
,,,,,,,,,,1,JJ,2024-09-24_15h32.47.025,Motor_Task,2023.2.2,MacIntel,59.97361161,152.6102,153.1329,4,1,0.5208,,11,8,118,8,1,9,L,,4,,,,,,,
,,,,,,,,,,1,JJ,2024-09-24_15h32.47.025,Motor_Task,2023.2.2,MacIntel,59.97361161,153.1343,153.6373,1,1,0.5022,,11,9,119,9,1,10,I,,1,,,,,,,
,,,,,,,,,,1,JJ,2024-09-24_15h32.47.025,Motor_Task,2023.2.2,MacIntel,59.97361161,153.6377,154.2033,2,1,0.5646,,12,0,120,0,1,1,M,,2,,,,,,,
,,,,,,,,,,1,JJ,2024-09-24_15h32.47.025,Motor_Task,2023.2.2,MacIntel,59.97361161,154.2041,154.7947,3,1,0.5891,,12,1,121,1,1,2,R,,3,,,,,,,
,,,,,,,,,,1,JJ,2024-09-24_15h32.47.025,Motor_Task,2023.2.2,MacIntel,59.97361161,154.7956,155.2933,2,1,0.497,,12,2,122,2,1,3,M,,2,,,,,,,
,,,,,,,,,,1,JJ,2024-09-24_15h32.47.025,Motor_Task,2023.2.2,MacIntel,59.97361161,155.2938,155.8442,3,1,0.5498,,12,3,123,3,1,4,R,,3,,,,,,,
,,,,,,,,,,1,JJ,2024-09-24_15h32.47.025,Motor_Task,2023.2.2,MacIntel,59.97361161,155.8447,156.3277,1,1,0.4813,,12,4,124,4,1,5,I,,1,,,,,,,
,,,,,,,,,,1,JJ,2024-09-24_15h32.47.025,Motor_Task,2023.2.2,MacIntel,59.97361161,156.3295,156.8469,1,1,0.5155,,12,5,125,5,1,6,I,,1,,,,,,,
,,,,,,,,,,1,JJ,2024-09-24_15h32.47.025,Motor_Task,2023.2.2,MacIntel,59.97361161,156.8474,157.4462,3,1,0.5969,,12,6,126,6,1,7,R,,3,,,,,,,
,,,,,,,,,,1,JJ,2024-09-24_15h32.47.025,Motor_Task,2023.2.2,MacIntel,59.97361161,157.447,157.9314,2,1,0.4837,,12,7,127,7,1,8,M,,2,,,,,,,
,,,,,,,,,,1,JJ,2024-09-24_15h32.47.025,Motor_Task,2023.2.2,MacIntel,59.97361161,157.9318,158.4636,4,1,0.5303,,12,8,128,8,1,9,L,,4,,,,,,,
,,,,,,,,,,1,JJ,2024-09-24_15h32.47.025,Motor_Task,2023.2.2,MacIntel,59.97361161,158.4646,158.9341,1,1,0.4687,,12,9,129,9,1,10,I,,1,,,,,,,
,,,,,,,,,,1,JJ,2024-09-24_15h32.47.025,Motor_Task,2023.2.2,MacIntel,59.97361161,158.9346,159.4471,2,1,0.5102,,13,0,130,0,1,1,M,,2,,,,,,,
,,,,,,,,,,1,JJ,2024-09-24_15h32.47.025,Motor_Task,2023.2.2,MacIntel,59.97361161,159.4481,160.0655,3,1,0.6165,,13,1,131,1,1,2,R,,3,,,,,,,
,,,,,,,,,,1,JJ,2024-09-24_15h32.47.025,Motor_Task,2023.2.2,MacIntel,59.97361161,160.066,160.5991,2,1,0.5323,,13,2,132,2,1,3,M,,2,,,,,,,
,,,,,,,,,,1,JJ,2024-09-24_15h32.47.025,Motor_Task,2023.2.2,MacIntel,59.97361161,160.5996,161.0815,4,0,0.4797,,13,3,133,3,1,4,R,,3,,,,,,,
,,,,,,,,,,1,JJ,2024-09-24_15h32.47.025,Motor_Task,2023.2.2,MacIntel,59.97361161,161.0823,161.7885,1,1,0.7043,,13,4,134,4,1,5,I,,1,,,,,,,
,,,,,,,,,,1,JJ,2024-09-24_15h32.47.025,Motor_Task,2023.2.2,MacIntel,59.97361161,161.7897,162.3523,1,1,0.5608,,13,5,135,5,1,6,I,,1,,,,,,,
,,,,,,,,,,1,JJ,2024-09-24_15h32.47.025,Motor_Task,2023.2.2,MacIntel,59.97361161,162.3534,162.9383,3,1,0.583,,13,6,136,6,1,7,R,,3,,,,,,,
,,,,,,,,,,1,JJ,2024-09-24_15h32.47.025,Motor_Task,2023.2.2,MacIntel,59.97361161,162.9394,163.4642,2,1,0.5232,,13,7,137,7,1,8,M,,2,,,,,,,
,,,,,,,,,,1,JJ,2024-09-24_15h32.47.025,Motor_Task,2023.2.2,MacIntel,59.97361161,163.4655,163.9965,4,1,0.529,,13,8,138,8,1,9,L,,4,,,,,,,
,,,,,,,,,,1,JJ,2024-09-24_15h32.47.025,Motor_Task,2023.2.2,MacIntel,59.97361161,163.9976,164.5028,1,1,0.5036,,13,9,139,9,1,10,I,,1,,,,,,,
,,,,,,,,,,1,JJ,2024-09-24_15h32.47.025,Motor_Task,2023.2.2,MacIntel,59.97361161,164.5043,165.0137,2,1,0.5078,,14,0,140,0,1,1,M,,2,,,,,,,
,,,,,,,,,,1,JJ,2024-09-24_15h32.47.025,Motor_Task,2023.2.2,MacIntel,59.97361161,165.0145,165.6341,3,1,0.6182,,14,1,141,1,1,2,R,,3,,,,,,,
,,,,,,,,,,1,JJ,2024-09-24_15h32.47.025,Motor_Task,2023.2.2,MacIntel,59.97361161,165.635,166.117,2,1,0.4806,,14,2,142,2,1,3,M,,2,,,,,,,
,,,,,,,,,,1,JJ,2024-09-24_15h32.47.025,Motor_Task,2023.2.2,MacIntel,59.97361161,166.1176,166.6813,3,1,0.5624,,14,3,143,3,1,4,R,,3,,,,,,,
,,,,,,,,,,1,JJ,2024-09-24_15h32.47.025,Motor_Task,2023.2.2,MacIntel,59.97361161,166.6824,167.3191,1,1,0.6346,,14,4,144,4,1,5,I,,1,,,,,,,
,,,,,,,,,,1,JJ,2024-09-24_15h32.47.025,Motor_Task,2023.2.2,MacIntel,59.97361161,167.3195,167.8629,1,1,0.5419,,14,5,145,5,1,6,I,,1,,,,,,,
,,,,,,,,,,1,JJ,2024-09-24_15h32.47.025,Motor_Task,2023.2.2,MacIntel,59.97361161,167.8643,168.4506,3,1,0.5841,,14,6,146,6,1,7,R,,3,,,,,,,
,,,,,,,,,,1,JJ,2024-09-24_15h32.47.025,Motor_Task,2023.2.2,MacIntel,59.97361161,168.4516,168.999,2,1,0.5458,,14,7,147,7,1,8,M,,2,,,,,,,
,,,,,,,,,,1,JJ,2024-09-24_15h32.47.025,Motor_Task,2023.2.2,MacIntel,59.97361161,169.0002,169.6789,4,1,0.677,,14,8,148,8,1,9,L,,4,,,,,,,
,,,,,,,,,,1,JJ,2024-09-24_15h32.47.025,Motor_Task,2023.2.2,MacIntel,59.97361161,169.6798,170.2275,1,1,0.5465,,14,9,149,9,1,10,I,,1,,,,,,,
,,,,,,,,,,1,JJ,2024-09-24_15h32.47.025,Motor_Task,2023.2.2,MacIntel,59.97361161,170.228,170.907,2,1,0.6776,,15,0,150,0,1,1,M,,2,,,,,,,
,,,,,,,,,,1,JJ,2024-09-24_15h32.47.025,Motor_Task,2023.2.2,MacIntel,59.97361161,170.9081,171.4783,3,1,0.5695,,15,1,151,1,1,2,R,,3,,,,,,,
,,,,,,,,,,1,JJ,2024-09-24_15h32.47.025,Motor_Task,2023.2.2,MacIntel,59.97361161,171.4787,172.0148,2,1,0.5346,,15,2,152,2,1,3,M,,2,,,,,,,
,,,,,,,,,,1,JJ,2024-09-24_15h32.47.025,Motor_Task,2023.2.2,MacIntel,59.97361161,172.016,172.6031,3,1,0.5858,,15,3,153,3,1,4,R,,3,,,,,,,
,,,,,,,,,,1,JJ,2024-09-24_15h32.47.025,Motor_Task,2023.2.2,MacIntel,59.97361161,172.6038,173.1749,1,1,0.5701,,15,4,154,4,1,5,I,,1,,,,,,,
,,,,,,,,,,1,JJ,2024-09-24_15h32.47.025,Motor_Task,2023.2.2,MacIntel,59.97361161,173.1758,173.731,1,1,0.5546,,15,5,155,5,1,6,I,,1,,,,,,,
,,,,,,,,,,1,JJ,2024-09-24_15h32.47.025,Motor_Task,2023.2.2,MacIntel,59.97361161,173.7314,174.3285,3,1,0.5965,,15,6,156,6,1,7,R,,3,,,,,,,
,,,,,,,,,,1,JJ,2024-09-24_15h32.47.025,Motor_Task,2023.2.2,MacIntel,59.97361161,174.3289,174.8667,2,1,0.5366,,15,7,157,7,1,8,M,,2,,,,,,,
,,,,,,,,,,1,JJ,2024-09-24_15h32.47.025,Motor_Task,2023.2.2,MacIntel,59.97361161,174.8679,175.4895,4,1,0.6208,,15,8,158,8,1,9,L,,4,,,,,,,
,,,,,,,,,,1,JJ,2024-09-24_15h32.47.025,Motor_Task,2023.2.2,MacIntel,59.97361161,175.49,176.0184,1,1,0.5272,,15,9,159,9,1,10,I,,1,,,,,,,
,,,,,,,,,,1,JJ,2024-09-24_15h32.47.025,Motor_Task,2023.2.2,MacIntel,59.97361161,176.0197,176.5156,2,1,0.4949,,16,0,160,0,1,1,M,,2,,,,,,,
,,,,,,,,,,1,JJ,2024-09-24_15h32.47.025,Motor_Task,2023.2.2,MacIntel,59.97361161,176.5161,177.0122,3,1,0.4945,,16,1,161,1,1,2,R,,3,,,,,,,
,,,,,,,,,,1,JJ,2024-09-24_15h32.47.025,Motor_Task,2023.2.2,MacIntel,59.97361161,177.0136,177.526,2,1,0.5102,,16,2,162,2,1,3,M,,2,,,,,,,
,,,,,,,,,,1,JJ,2024-09-24_15h32.47.025,Motor_Task,2023.2.2,MacIntel,59.97361161,177.5264,178.0391,3,1,0.5102,,16,3,163,3,1,4,R,,3,,,,,,,
,,,,,,,,,,1,JJ,2024-09-24_15h32.47.025,Motor_Task,2023.2.2,MacIntel,59.97361161,178.0403,178.5252,1,1,0.4837,,16,4,164,4,1,5,I,,1,,,,,,,
,,,,,,,,,,1,JJ,2024-09-24_15h32.47.025,Motor_Task,2023.2.2,MacIntel,59.97361161,178.5264,179.0492,1,1,0.5217,,16,5,165,5,1,6,I,,1,,,,,,,
,,,,,,,,,,1,JJ,2024-09-24_15h32.47.025,Motor_Task,2023.2.2,MacIntel,59.97361161,179.0498,179.5737,3,1,0.5225,,16,6,166,6,1,7,R,,3,,,,,,,
,,,,,,,,,,1,JJ,2024-09-24_15h32.47.025,Motor_Task,2023.2.2,MacIntel,59.97361161,179.5744,180.0864,2,1,0.5113,,16,7,167,7,1,8,M,,2,,,,,,,
,,,,,,,,,,1,JJ,2024-09-24_15h32.47.025,Motor_Task,2023.2.2,MacIntel,59.97361161,180.0868,180.7359,4,1,0.6476,,16,8,168,8,1,9,L,,4,,,,,,,
,,,,,,,,,,1,JJ,2024-09-24_15h32.47.025,Motor_Task,2023.2.2,MacIntel,59.97361161,180.7372,181.3223,1,1,0.583,,16,9,169,9,1,10,I,,1,,,,,,,
,,,,,,,,,,1,JJ,2024-09-24_15h32.47.025,Motor_Task,2023.2.2,MacIntel,59.97361161,181.3238,181.8179,2,1,0.4926,,17,0,170,0,1,1,M,,2,,,,,,,
,,,,,,,,,,1,JJ,2024-09-24_15h32.47.025,Motor_Task,2023.2.2,MacIntel,59.97361161,181.8186,182.2896,3,1,0.469,,17,1,171,1,1,2,R,,3,,,,,,,
,,,,,,,,,,1,JJ,2024-09-24_15h32.47.025,Motor_Task,2023.2.2,MacIntel,59.97361161,182.2909,182.7709,2,1,0.479,,17,2,172,2,1,3,M,,2,,,,,,,
,,,,,,,,,,1,JJ,2024-09-24_15h32.47.025,Motor_Task,2023.2.2,MacIntel,59.97361161,182.7714,183.5021,3,1,0.7296,,17,3,173,3,1,4,R,,3,,,,,,,
,,,,,,,,,,1,JJ,2024-09-24_15h32.47.025,Motor_Task,2023.2.2,MacIntel,59.97361161,183.5033,184.2383,1,1,0.7332,,17,4,174,4,1,5,I,,1,,,,,,,
,,,,,,,,,,1,JJ,2024-09-24_15h32.47.025,Motor_Task,2023.2.2,MacIntel,59.97361161,184.2395,184.7262,1,1,0.4846,,17,5,175,5,1,6,I,,1,,,,,,,
,,,,,,,,,,1,JJ,2024-09-24_15h32.47.025,Motor_Task,2023.2.2,MacIntel,59.97361161,184.7273,185.9398,3,1,1.2107,,17,6,176,6,1,7,R,,3,,,,,,,
,,,,,,,,,,1,JJ,2024-09-24_15h32.47.025,Motor_Task,2023.2.2,MacIntel,59.97361161,185.941,186.4826,2,1,0.5406,,17,7,177,7,1,8,M,,2,,,,,,,
,,,,,,,,,,1,JJ,2024-09-24_15h32.47.025,Motor_Task,2023.2.2,MacIntel,59.97361161,186.483,187.0599,4,1,0.5749,,17,8,178,8,1,9,L,,4,,,,,,,
,,,,,,,,,,1,JJ,2024-09-24_15h32.47.025,Motor_Task,2023.2.2,MacIntel,59.97361161,187.0608,187.5951,1,1,0.5334,,17,9,179,9,1,10,I,,1,,,,,,,
,,,,,,,,,,1,JJ,2024-09-24_15h32.47.025,Motor_Task,2023.2.2,MacIntel,59.97361161,187.596,188.2368,2,1,0.6394,,18,0,180,0,1,1,M,,2,,,,,,,
,,,,,,,,,,1,JJ,2024-09-24_15h32.47.025,Motor_Task,2023.2.2,MacIntel,59.97361161,188.2404,188.8389,3,1,0.5965,,18,1,181,1,1,2,R,,3,,,,,,,
,,,,,,,,,,1,JJ,2024-09-24_15h32.47.025,Motor_Task,2023.2.2,MacIntel,59.97361161,188.8403,189.3467,2,1,0.5048,,18,2,182,2,1,3,M,,2,,,,,,,
,,,,,,,,,,1,JJ,2024-09-24_15h32.47.025,Motor_Task,2023.2.2,MacIntel,59.97361161,189.3475,189.8957,3,1,0.5462,,18,3,183,3,1,4,R,,3,,,,,,,
,,,,,,,,,,1,JJ,2024-09-24_15h32.47.025,Motor_Task,2023.2.2,MacIntel,59.97361161,189.8965,190.425,1,1,0.5267,,18,4,184,4,1,5,I,,1,,,,,,,
,,,,,,,,,,1,JJ,2024-09-24_15h32.47.025,Motor_Task,2023.2.2,MacIntel,59.97361161,190.4264,190.9829,1,1,0.5548,,18,5,185,5,1,6,I,,1,,,,,,,
,,,,,,,,,,1,JJ,2024-09-24_15h32.47.025,Motor_Task,2023.2.2,MacIntel,59.97361161,190.9843,191.5732,3,1,0.5874,,18,6,186,6,1,7,R,,3,,,,,,,
,,,,,,,,,,1,JJ,2024-09-24_15h32.47.025,Motor_Task,2023.2.2,MacIntel,59.97361161,191.5743,192.0791,2,1,0.503,,18,7,187,7,1,8,M,,2,,,,,,,
,,,,,,,,,,1,JJ,2024-09-24_15h32.47.025,Motor_Task,2023.2.2,MacIntel,59.97361161,192.08,192.5711,4,1,0.4906,,18,8,188,8,1,9,L,,4,,,,,,,
,,,,,,,,,,1,JJ,2024-09-24_15h32.47.025,Motor_Task,2023.2.2,MacIntel,59.97361161,192.5716,193.1379,1,1,0.5658,,18,9,189,9,1,10,I,,1,,,,,,,
,,,,,,,,,,1,JJ,2024-09-24_15h32.47.025,Motor_Task,2023.2.2,MacIntel,59.97361161,193.1384,193.7364,2,1,0.5961,,19,0,190,0,1,1,M,,2,,,,,,,
,,,,,,,,,,1,JJ,2024-09-24_15h32.47.025,Motor_Task,2023.2.2,MacIntel,59.97361161,193.7375,194.2643,3,1,0.5253,,19,1,191,1,1,2,R,,3,,,,,,,
,,,,,,,,,,1,JJ,2024-09-24_15h32.47.025,Motor_Task,2023.2.2,MacIntel,59.97361161,194.2652,194.777,2,1,0.5104,,19,2,192,2,1,3,M,,2,,,,,,,
,,,,,,,,,,1,JJ,2024-09-24_15h32.47.025,Motor_Task,2023.2.2,MacIntel,59.97361161,194.7783,195.3095,3,1,0.529,,19,3,193,3,1,4,R,,3,,,,,,,
,,,,,,,,,,1,JJ,2024-09-24_15h32.47.025,Motor_Task,2023.2.2,MacIntel,59.97361161,195.3115,195.8961,1,1,0.582,,19,4,194,4,1,5,I,,1,,,,,,,
,,,,,,,,,,1,JJ,2024-09-24_15h32.47.025,Motor_Task,2023.2.2,MacIntel,59.97361161,195.8974,196.394,1,1,0.4951,,19,5,195,5,1,6,I,,1,,,,,,,
,,,,,,,,,,1,JJ,2024-09-24_15h32.47.025,Motor_Task,2023.2.2,MacIntel,59.97361161,196.3948,197.0318,3,1,0.6356,,19,6,196,6,1,7,R,,3,,,,,,,
,,,,,,,,,,1,JJ,2024-09-24_15h32.47.025,Motor_Task,2023.2.2,MacIntel,59.97361161,197.0327,197.5316,2,1,0.4977,,19,7,197,7,1,8,M,,2,,,,,,,
,,,,,,,,,,1,JJ,2024-09-24_15h32.47.025,Motor_Task,2023.2.2,MacIntel,59.97361161,197.5327,198.0161,4,1,0.4818,,19,8,198,8,1,9,L,,4,,,,,,,
,,,,,,,,,,1,JJ,2024-09-24_15h32.47.025,Motor_Task,2023.2.2,MacIntel,59.97361161,198.0169,198.5037,1,1,0.4849,,19,9,199,9,1,10,I,,1,,,,,,,
,,,,,,,,,,1,JJ,2024-09-24_15h32.47.025,Motor_Task,2023.2.2,MacIntel,59.97361161,198.5322,199.0668,3,1,0.5331,,,,,,,7,R,,3,0,0,0,6,1,,
,,,,,,,,,,1,JJ,2024-09-24_15h32.47.025,Motor_Task,2023.2.2,MacIntel,59.97361161,199.068,199.7911,1,1,0.7219,,,,,,,6,I,,1,0,1,1,5,1,,
,,,,,,,,,,1,JJ,2024-09-24_15h32.47.025,Motor_Task,2023.2.2,MacIntel,59.97361161,199.792,200.3521,3,1,0.5587,,,,,,,2,R,,3,0,2,2,1,1,,
,,,,,,,,,,1,JJ,2024-09-24_15h32.47.025,Motor_Task,2023.2.2,MacIntel,59.97361161,200.3531,200.976,1,1,0.6214,,,,,,,5,I,,1,0,3,3,4,1,,
,,,,,,,,,,1,JJ,2024-09-24_15h32.47.025,Motor_Task,2023.2.2,MacIntel,59.97361161,200.9768,201.5792,2,1,0.6017,,,,,,,3,M,,2,0,4,4,2,1,,
,,,,,,,,,,1,JJ,2024-09-24_15h32.47.025,Motor_Task,2023.2.2,MacIntel,59.97361161,201.5797,202.1529,2,1,0.5723,,,,,,,8,M,,2,0,5,5,7,1,,
,,,,,,,,,,1,JJ,2024-09-24_15h32.47.025,Motor_Task,2023.2.2,MacIntel,59.97361161,202.154,202.7046,2,1,0.5494,,,,,,,1,M,,2,0,6,6,0,1,,
,,,,,,,,,,1,JJ,2024-09-24_15h32.47.025,Motor_Task,2023.2.2,MacIntel,59.97361161,202.7054,203.2983,1,1,0.5914,,,,,,,10,I,,1,0,7,7,9,1,,
,,,,,,,,,,1,JJ,2024-09-24_15h32.47.025,Motor_Task,2023.2.2,MacIntel,59.97361161,203.2993,203.8443,3,1,0.5442,,,,,,,4,R,,3,0,8,8,3,1,,
,,,,,,,,,,1,JJ,2024-09-24_15h32.47.025,Motor_Task,2023.2.2,MacIntel,59.97361161,203.8447,204.53,4,1,0.684,,,,,,,9,L,,4,0,9,9,8,1,,
,,,,,,,,,,1,JJ,2024-09-24_15h32.47.025,Motor_Task,2023.2.2,MacIntel,59.97361161,204.5314,205.0262,1,1,0.4931,,,,,,,6,I,,1,1,0,10,5,1,,
,,,,,,,,,,1,JJ,2024-09-24_15h32.47.025,Motor_Task,2023.2.2,MacIntel,59.97361161,205.027,205.6523,3,1,0.6247,,,,,,,2,R,,3,1,1,11,1,1,,
,,,,,,,,,,1,JJ,2024-09-24_15h32.47.025,Motor_Task,2023.2.2,MacIntel,59.97361161,205.6529,206.2983,4,1,0.6437,,,,,,,9,L,,4,1,2,12,8,1,,
,,,,,,,,,,1,JJ,2024-09-24_15h32.47.025,Motor_Task,2023.2.2,MacIntel,59.97361161,206.2996,206.7895,1,1,0.4883,,,,,,,5,I,,1,1,3,13,4,1,,
,,,,,,,,,,1,JJ,2024-09-24_15h32.47.025,Motor_Task,2023.2.2,MacIntel,59.97361161,206.791,207.6833,2,1,0.8895,,,,,,,3,M,,2,1,4,14,2,1,,
,,,,,,,,,,1,JJ,2024-09-24_15h32.47.025,Motor_Task,2023.2.2,MacIntel,59.97361161,207.6854,208.4881,3,1,0.8016,,,,,,,4,R,,3,1,5,15,3,1,,
,,,,,,,,,,1,JJ,2024-09-24_15h32.47.025,Motor_Task,2023.2.2,MacIntel,59.97361161,208.4885,209.1604,2,1,0.6704,,,,,,,1,M,,2,1,6,16,0,1,,
,,,,,,,,,,1,JJ,2024-09-24_15h32.47.025,Motor_Task,2023.2.2,MacIntel,59.97361161,209.1617,209.7615,1,1,0.5973,,,,,,,10,I,,1,1,7,17,9,1,,
,,,,,,,,,,1,JJ,2024-09-24_15h32.47.025,Motor_Task,2023.2.2,MacIntel,59.97361161,209.763,210.3165,2,1,0.5519,,,,,,,8,M,,2,1,8,18,7,1,,
,,,,,,,,,,1,JJ,2024-09-24_15h32.47.025,Motor_Task,2023.2.2,MacIntel,59.97361161,210.3177,210.9017,3,1,0.5822,,,,,,,7,R,,3,1,9,19,6,1,,
,,,,,,,,,,1,JJ,2024-09-24_15h32.47.025,Motor_Task,2023.2.2,MacIntel,59.97361161,210.9028,211.4328,1,0,0.5292,,,,,,,3,M,,2,2,0,20,2,1,,
,,,,,,,,,,1,JJ,2024-09-24_15h32.47.025,Motor_Task,2023.2.2,MacIntel,59.97361161,211.4332,212.0885,4,1,0.6546,,,,,,,9,L,,4,2,1,21,8,1,,
,,,,,,,,,,1,JJ,2024-09-24_15h32.47.025,Motor_Task,2023.2.2,MacIntel,59.97361161,212.089,212.6543,1,1,0.5636,,,,,,,6,I,,1,2,2,22,5,1,,
,,,,,,,,,,1,JJ,2024-09-24_15h32.47.025,Motor_Task,2023.2.2,MacIntel,59.97361161,212.6553,213.1923,1,1,0.5356,,,,,,,10,I,,1,2,3,23,9,1,,
,,,,,,,,,,1,JJ,2024-09-24_15h32.47.025,Motor_Task,2023.2.2,MacIntel,59.97361161,213.194,213.797,3,1,0.602,,,,,,,4,R,,3,2,4,24,3,1,,
,,,,,,,,,,1,JJ,2024-09-24_15h32.47.025,Motor_Task,2023.2.2,MacIntel,59.97361161,213.7974,214.3755,3,1,0.5771,,,,,,,2,R,,3,2,5,25,1,1,,
,,,,,,,,,,1,JJ,2024-09-24_15h32.47.025,Motor_Task,2023.2.2,MacIntel,59.97361161,214.3766,215.0475,1,1,0.6702,,,,,,,5,I,,1,2,6,26,4,1,,
,,,,,,,,,,1,JJ,2024-09-24_15h32.47.025,Motor_Task,2023.2.2,MacIntel,59.97361161,215.0479,215.6734,2,1,0.6248,,,,,,,1,M,,2,2,7,27,0,1,,
,,,,,,,,,,1,JJ,2024-09-24_15h32.47.025,Motor_Task,2023.2.2,MacIntel,59.97361161,215.6738,216.3457,3,1,0.6714,,,,,,,7,R,,3,2,8,28,6,1,,
,,,,,,,,,,1,JJ,2024-09-24_15h32.47.025,Motor_Task,2023.2.2,MacIntel,59.97361161,216.3462,217.025,2,1,0.6776,,,,,,,8,M,,2,2,9,29,7,1,,
,,,,,,,,,,1,JJ,2024-09-24_15h32.47.025,Motor_Task,2023.2.2,MacIntel,59.97361161,217.0257,217.581,2,1,0.5539,,,,,,,8,M,,2,3,0,30,7,1,,
,,,,,,,,,,1,JJ,2024-09-24_15h32.47.025,Motor_Task,2023.2.2,MacIntel,59.97361161,217.5822,218.1166,4,0,0.5325,,,,,,,7,R,,3,3,1,31,6,1,,
,,,,,,,,,,1,JJ,2024-09-24_15h32.47.025,Motor_Task,2023.2.2,MacIntel,59.97361161,218.1169,218.8122,3,1,0.6944,,,,,,,2,R,,3,3,2,32,1,1,,
,,,,,,,,,,1,JJ,2024-09-24_15h32.47.025,Motor_Task,2023.2.2,MacIntel,59.97361161,218.8127,219.4431,1,1,0.6292,,,,,,,6,I,,1,3,3,33,5,1,,
,,,,,,,,,,1,JJ,2024-09-24_15h32.47.025,Motor_Task,2023.2.2,MacIntel,59.97361161,219.4438,220.0907,1,1,0.6453,,,,,,,5,I,,1,3,4,34,4,1,,
,,,,,,,,,,1,JJ,2024-09-24_15h32.47.025,Motor_Task,2023.2.2,MacIntel,59.97361161,220.092,220.8915,4,1,0.7978,,,,,,,9,L,,4,3,5,35,8,1,,
,,,,,,,,,,1,JJ,2024-09-24_15h32.47.025,Motor_Task,2023.2.2,MacIntel,59.97361161,220.8928,221.7053,2,1,0.811,,,,,,,3,M,,2,3,6,36,2,1,,
,,,,,,,,,,1,JJ,2024-09-24_15h32.47.025,Motor_Task,2023.2.2,MacIntel,59.97361161,221.7065,222.2236,2,1,0.5163,,,,,,,1,M,,2,3,7,37,0,1,,
,,,,,,,,,,1,JJ,2024-09-24_15h32.47.025,Motor_Task,2023.2.2,MacIntel,59.97361161,222.2241,222.8225,1,1,0.5969,,,,,,,10,I,,1,3,8,38,9,1,,
,,,,,,,,,,1,JJ,2024-09-24_15h32.47.025,Motor_Task,2023.2.2,MacIntel,59.97361161,222.8262,223.4535,3,1,0.6263,,,,,,,4,R,,3,3,9,39,3,1,,
,,,,,,,,,,1,JJ,2024-09-24_15h32.47.025,Motor_Task,2023.2.2,MacIntel,59.97361161,223.4542,224.1035,1,1,0.6481,,,,,,,6,I,,1,4,0,40,5,1,,
,,,,,,,,,,1,JJ,2024-09-24_15h32.47.025,Motor_Task,2023.2.2,MacIntel,59.97361161,224.104,224.6436,1,0,0.539,,,,,,,8,M,,2,4,1,41,7,1,,
,,,,,,,,,,1,JJ,2024-09-24_15h32.47.025,Motor_Task,2023.2.2,MacIntel,59.97361161,224.6441,225.2268,2,1,0.5816,,,,,,,1,M,,2,4,2,42,0,1,,
,,,,,,,,,,1,JJ,2024-09-24_15h32.47.025,Motor_Task,2023.2.2,MacIntel,59.97361161,225.2271,225.8925,4,1,0.6622,,,,,,,9,L,,4,4,3,43,8,1,,
,,,,,,,,,,1,JJ,2024-09-24_15h32.47.025,Motor_Task,2023.2.2,MacIntel,59.97361161,225.8942,226.7489,3,1,0.8538,,,,,,,2,R,,3,4,4,44,1,1,,
,,,,,,,,,,1,JJ,2024-09-24_15h32.47.025,Motor_Task,2023.2.2,MacIntel,59.97361161,226.7492,227.4246,1,1,0.6739,,,,,,,10,I,,1,4,5,45,9,1,,
,,,,,,,,,,1,JJ,2024-09-24_15h32.47.025,Motor_Task,2023.2.2,MacIntel,59.97361161,227.4261,228.0068,2,1,0.5795,,,,,,,3,M,,2,4,6,46,2,1,,
,,,,,,,,,,1,JJ,2024-09-24_15h32.47.025,Motor_Task,2023.2.2,MacIntel,59.97361161,228.0077,228.5965,1,1,0.5882,,,,,,,5,I,,1,4,7,47,4,1,,
,,,,,,,,,,1,JJ,2024-09-24_15h32.47.025,Motor_Task,2023.2.2,MacIntel,59.97361161,228.597,229.1948,3,1,0.5974,,,,,,,7,R,,3,4,8,48,6,1,,
,,,,,,,,,,1,JJ,2024-09-24_15h32.47.025,Motor_Task,2023.2.2,MacIntel,59.97361161,229.1953,229.7673,3,1,0.5714,,,,,,,4,R,,3,4,9,49,3,1,,
,,,,,,,,,,1,JJ,2024-09-24_15h32.47.025,Motor_Task,2023.2.2,MacIntel,59.97361161,,,,,,,,,,,,,,,,,,,,,229.7679,233.7689