Trigger.started,Trigger.stopped,key_resp_4.keys,key_resp_4.rt,key_resp_4.duration,mouse.x,mouse.y,mouse.leftButton,mouse.midButton,mouse.rightButton,Session,Subject,date,expName,psychopyVersion,OS,frameRate,complex_block.started,complex_block.stopped,key_resp.keys,key_resp.corr,key_resp.rt,key_resp.duration,complex_block_loop.thisRepN,complex_block_loop.thisTrialN,complex_block_loop.thisN,complex_block_loop.thisIndex,complex_block_loop.ran,trial,finger,markerPos,correctResp,new_block_loop.thisRepN,new_block_loop.thisTrialN,new_block_loop.thisN,new_block_loop.thisIndex,new_block_loop.ran,endBuffer.started,endBuffer.stopped
0.0005,121.0668,1,121.044,,-0.1283818,-0.30906033,0,0,0,1,justine,2024-09-24_15h32.24.262,Motor_Task,2023.2.2,MacIntel,119.047619,,,,,,,,,,,,,,,,,,,,,,
,,,,,,,,,,1,justine,2024-09-24_15h32.24.262,Motor_Task,2023.2.2,MacIntel,119.047619,121.0862,121.7001,2,1,0.608,,0,0,0,0,1,1,M,,2,,,,,,,
,,,,,,,,,,1,justine,2024-09-24_15h32.24.262,Motor_Task,2023.2.2,MacIntel,119.047619,121.7007,122.2573,3,1,0.553,,0,1,1,1,1,2,R,,3,,,,,,,
,,,,,,,,,,1,justine,2024-09-24_15h32.24.262,Motor_Task,2023.2.2,MacIntel,119.047619,122.2579,122.8996,2,1,0.6372,,0,2,2,2,1,3,M,,2,,,,,,,
,,,,,,,,,,1,justine,2024-09-24_15h32.24.262,Motor_Task,2023.2.2,MacIntel,119.047619,122.9003,123.3655,3,1,0.4611,,0,3,3,3,1,4,R,,3,,,,,,,
,,,,,,,,,,1,justine,2024-09-24_15h32.24.262,Motor_Task,2023.2.2,MacIntel,119.047619,123.3663,124.0077,1,1,0.6364,,0,4,4,4,1,5,I,,1,,,,,,,
,,,,,,,,,,1,justine,2024-09-24_15h32.24.262,Motor_Task,2023.2.2,MacIntel,119.047619,124.008,124.5997,1,1,0.5869,,0,5,5,5,1,6,I,,1,,,,,,,
,,,,,,,,,,1,justine,2024-09-24_15h32.24.262,Motor_Task,2023.2.2,MacIntel,119.047619,124.6003,125.7748,3,1,1.1677,,0,6,6,6,1,7,R,,3,,,,,,,
,,,,,,,,,,1,justine,2024-09-24_15h32.24.262,Motor_Task,2023.2.2,MacIntel,119.047619,125.7752,126.5329,2,1,0.7541,,0,7,7,7,1,8,M,,2,,,,,,,
,,,,,,,,,,1,justine,2024-09-24_15h32.24.262,Motor_Task,2023.2.2,MacIntel,119.047619,126.5334,127.341,4,1,0.8065,,0,8,8,8,1,9,L,,4,,,,,,,
,,,,,,,,,,1,justine,2024-09-24_15h32.24.262,Motor_Task,2023.2.2,MacIntel,119.047619,127.3413,127.891,1,1,0.5451,,0,9,9,9,1,10,I,,1,,,,,,,
,,,,,,,,,,1,justine,2024-09-24_15h32.24.262,Motor_Task,2023.2.2,MacIntel,119.047619,127.8916,128.3749,2,1,0.477,,1,0,10,0,1,1,M,,2,,,,,,,
,,,,,,,,,,1,justine,2024-09-24_15h32.24.262,Motor_Task,2023.2.2,MacIntel,119.047619,128.3755,128.8663,3,1,0.4854,,1,1,11,1,1,2,R,,3,,,,,,,
,,,,,,,,,,1,justine,2024-09-24_15h32.24.262,Motor_Task,2023.2.2,MacIntel,119.047619,128.8668,129.5665,2,1,0.6977,,1,2,12,2,1,3,M,,2,,,,,,,
,,,,,,,,,,1,justine,2024-09-24_15h32.24.262,Motor_Task,2023.2.2,MacIntel,119.047619,129.567,130.258,3,1,0.6904,,1,3,13,3,1,4,R,,3,,,,,,,
,,,,,,,,,,1,justine,2024-09-24_15h32.24.262,Motor_Task,2023.2.2,MacIntel,119.047619,130.2584,130.8497,1,1,0.5859,,1,4,14,4,1,5,I,,1,,,,,,,
,,,,,,,,,,1,justine,2024-09-24_15h32.24.262,Motor_Task,2023.2.2,MacIntel,119.047619,130.8502,131.3997,1,1,0.5465,,1,5,15,5,1,6,I,,1,,,,,,,
,,,,,,,,,,1,justine,2024-09-24_15h32.24.262,Motor_Task,2023.2.2,MacIntel,119.047619,131.4002,132.1581,3,1,0.754,,1,6,16,6,1,7,R,,3,,,,,,,
,,,,,,,,,,1,justine,2024-09-24_15h32.24.262,Motor_Task,2023.2.2,MacIntel,119.047619,132.1588,132.6244,2,1,0.4608,,1,7,17,7,1,8,M,,2,,,,,,,
,,,,,,,,,,1,justine,2024-09-24_15h32.24.262,Motor_Task,2023.2.2,MacIntel,119.047619,132.6248,133.3081,4,1,0.6812,,1,8,18,8,1,9,L,,4,,,,,,,
,,,,,,,,,,1,justine,2024-09-24_15h32.24.262,Motor_Task,2023.2.2,MacIntel,119.047619,133.3086,133.9742,1,1,0.6599,,1,9,19,9,1,10,I,,1,,,,,,,
,,,,,,,,,,1,justine,2024-09-24_15h32.24.262,Motor_Task,2023.2.2,MacIntel,119.047619,133.9746,134.491,2,1,0.5141,,2,0,20,0,1,1,M,,2,,,,,,,
,,,,,,,,,,1,justine,2024-09-24_15h32.24.262,Motor_Task,2023.2.2,MacIntel,119.047619,134.4915,135.0329,3,1,0.5359,,2,1,21,1,1,2,R,,3,,,,,,,
,,,,,,,,,,1,justine,2024-09-24_15h32.24.262,Motor_Task,2023.2.2,MacIntel,119.047619,135.0335,135.6996,2,1,0.6657,,2,2,22,2,1,3,M,,2,,,,,,,
,,,,,,,,,,1,justine,2024-09-24_15h32.24.262,Motor_Task,2023.2.2,MacIntel,119.047619,135.7001,136.1492,3,1,0.4427,,2,3,23,3,1,4,R,,3,,,,,,,
,,,,,,,,,,1,justine,2024-09-24_15h32.24.262,Motor_Task,2023.2.2,MacIntel,119.047619,136.1494,136.9493,1,1,0.7951,,2,4,24,4,1,5,I,,1,,,,,,,
,,,,,,,,,,1,justine,2024-09-24_15h32.24.262,Motor_Task,2023.2.2,MacIntel,119.047619,136.9497,137.5498,1,1,0.5972,,2,5,25,5,1,6,I,,1,,,,,,,
,,,,,,,,,,1,justine,2024-09-24_15h32.24.262,Motor_Task,2023.2.2,MacIntel,119.047619,137.5503,138.0988,3,1,0.5445,,2,6,26,6,1,7,R,,3,,,,,,,
,,,,,,,,,,1,justine,2024-09-24_15h32.24.262,Motor_Task,2023.2.2,MacIntel,119.047619,138.0993,138.6159,2,1,0.5103,,2,7,27,7,1,8,M,,2,,,,,,,
,,,,,,,,,,1,justine,2024-09-24_15h32.24.262,Motor_Task,2023.2.2,MacIntel,119.047619,138.6162,139.2489,4,1,0.6282,,2,8,28,8,1,9,L,,4,,,,,,,
,,,,,,,,,,1,justine,2024-09-24_15h32.24.262,Motor_Task,2023.2.2,MacIntel,119.047619,139.2491,139.8411,1,1,0.5872,,2,9,29,9,1,10,I,,1,,,,,,,
,,,,,,,,,,1,justine,2024-09-24_15h32.24.262,Motor_Task,2023.2.2,MacIntel,119.047619,139.8413,140.433,2,1,0.5869,,3,0,30,0,1,1,M,,2,,,,,,,
,,,,,,,,,,1,justine,2024-09-24_15h32.24.262,Motor_Task,2023.2.2,MacIntel,119.047619,140.4335,141.1993,3,1,0.7594,,3,1,31,1,1,2,R,,3,,,,,,,
,,,,,,,,,,1,justine,2024-09-24_15h32.24.262,Motor_Task,2023.2.2,MacIntel,119.047619,141.1994,141.933,2,1,0.7315,,3,2,32,2,1,3,M,,2,,,,,,,
,,,,,,,,,,1,justine,2024-09-24_15h32.24.262,Motor_Task,2023.2.2,MacIntel,119.047619,141.9336,142.4915,3,1,0.5534,,3,3,33,3,1,4,R,,3,,,,,,,
,,,,,,,,,,1,justine,2024-09-24_15h32.24.262,Motor_Task,2023.2.2,MacIntel,119.047619,142.4919,143.1915,1,1,0.6983,,3,4,34,4,1,5,I,,1,,,,,,,
,,,,,,,,,,1,justine,2024-09-24_15h32.24.262,Motor_Task,2023.2.2,MacIntel,119.047619,143.192,143.6914,1,1,0.4961,,3,5,35,5,1,6,I,,1,,,,,,,
,,,,,,,,,,1,justine,2024-09-24_15h32.24.262,Motor_Task,2023.2.2,MacIntel,119.047619,143.6919,144.3581,3,1,0.6619,,3,6,36,6,1,7,R,,3,,,,,,,
,,,,,,,,,,1,justine,2024-09-24_15h32.24.262,Motor_Task,2023.2.2,MacIntel,119.047619,144.3587,144.8914,2,1,0.5311,,3,7,37,7,1,8,M,,2,,,,,,,
,,,,,,,,,,1,justine,2024-09-24_15h32.24.262,Motor_Task,2023.2.2,MacIntel,119.047619,144.8919,145.6246,4,1,0.7277,,3,8,38,8,1,9,L,,4,,,,,,,
,,,,,,,,,,1,justine,2024-09-24_15h32.24.262,Motor_Task,2023.2.2,MacIntel,119.047619,145.6252,146.1914,1,1,0.562,,3,9,39,9,1,10,I,,1,,,,,,,
,,,,,,,,,,1,justine,2024-09-24_15h32.24.262,Motor_Task,2023.2.2,MacIntel,119.047619,146.1919,146.7163,2,1,0.5193,,4,0,40,0,1,1,M,,2,,,,,,,
,,,,,,,,,,1,justine,2024-09-24_15h32.24.262,Motor_Task,2023.2.2,MacIntel,119.047619,146.7169,147.2584,3,1,0.536,,4,1,41,1,1,2,R,,3,,,,,,,
,,,,,,,,,,1,justine,2024-09-24_15h32.24.262,Motor_Task,2023.2.2,MacIntel,119.047619,147.259,147.833,2,1,0.5729,,4,2,42,2,1,3,M,,2,,,,,,,
,,,,,,,,,,1,justine,2024-09-24_15h32.24.262,Motor_Task,2023.2.2,MacIntel,119.047619,147.8335,148.3247,3,1,0.4885,,4,3,43,3,1,4,R,,3,,,,,,,
,,,,,,,,,,1,justine,2024-09-24_15h32.24.262,Motor_Task,2023.2.2,MacIntel,119.047619,148.3252,148.8748,1,1,0.5455,,4,4,44,4,1,5,I,,1,,,,,,,
,,,,,,,,,,1,justine,2024-09-24_15h32.24.262,Motor_Task,2023.2.2,MacIntel,119.047619,148.8753,149.3911,1,1,0.5105,,4,5,45,5,1,6,I,,1,,,,,,,
,,,,,,,,,,1,justine,2024-09-24_15h32.24.262,Motor_Task,2023.2.2,MacIntel,119.047619,149.3916,150.0244,3,1,0.6285,,4,6,46,6,1,7,R,,3,,,,,,,
,,,,,,,,,,1,justine,2024-09-24_15h32.24.262,Motor_Task,2023.2.2,MacIntel,119.047619,150.025,150.4582,2,1,0.4292,,4,7,47,7,1,8,M,,2,,,,,,,
,,,,,,,,,,1,justine,2024-09-24_15h32.24.262,Motor_Task,2023.2.2,MacIntel,119.047619,150.4588,151.4247,4,1,0.9614,,4,8,48,8,1,9,L,,4,,,,,,,
,,,,,,,,,,1,justine,2024-09-24_15h32.24.262,Motor_Task,2023.2.2,MacIntel,119.047619,151.4253,151.9829,1,1,0.5526,,4,9,49,9,1,10,I,,1,,,,,,,
,,,,,,,,,,1,justine,2024-09-24_15h32.24.262,Motor_Task,2023.2.2,MacIntel,119.047619,151.9834,152.6579,2,1,0.6681,,5,0,50,0,1,1,M,,2,,,,,,,
,,,,,,,,,,1,justine,2024-09-24_15h32.24.262,Motor_Task,2023.2.2,MacIntel,119.047619,152.6585,153.183,3,1,0.5191,,5,1,51,1,1,2,R,,3,,,,,,,
,,,,,,,,,,1,justine,2024-09-24_15h32.24.262,Motor_Task,2023.2.2,MacIntel,119.047619,153.1835,154.0082,2,1,0.8199,,5,2,52,2,1,3,M,,2,,,,,,,
,,,,,,,,,,1,justine,2024-09-24_15h32.24.262,Motor_Task,2023.2.2,MacIntel,119.047619,154.0085,154.5164,3,1,0.5049,,5,3,53,3,1,4,R,,3,,,,,,,
,,,,,,,,,,1,justine,2024-09-24_15h32.24.262,Motor_Task,2023.2.2,MacIntel,119.047619,154.5169,155.0331,1,1,0.5144,,5,4,54,4,1,5,I,,1,,,,,,,
,,,,,,,,,,1,justine,2024-09-24_15h32.24.262,Motor_Task,2023.2.2,MacIntel,119.047619,155.0336,155.5747,1,1,0.5396,,5,5,55,5,1,6,I,,1,,,,,,,
,,,,,,,,,,1,justine,2024-09-24_15h32.24.262,Motor_Task,2023.2.2,MacIntel,119.047619,155.5752,156.2576,3,1,0.6763,,5,6,56,6,1,7,R,,3,,,,,,,
,,,,,,,,,,1,justine,2024-09-24_15h32.24.262,Motor_Task,2023.2.2,MacIntel,119.047619,156.2578,156.8994,2,1,0.6363,,5,7,57,7,1,8,M,,2,,,,,,,
,,,,,,,,,,1,justine,2024-09-24_15h32.24.262,Motor_Task,2023.2.2,MacIntel,119.047619,156.8997,157.9664,4,1,1.0614,,5,8,58,8,1,9,L,,4,,,,,,,
,,,,,,,,,,1,justine,2024-09-24_15h32.24.262,Motor_Task,2023.2.2,MacIntel,119.047619,157.967,158.5582,1,1,0.5866,,5,9,59,9,1,10,I,,1,,,,,,,
,,,,,,,,,,1,justine,2024-09-24_15h32.24.262,Motor_Task,2023.2.2,MacIntel,119.047619,158.5588,159.1498,2,1,0.5859,,6,0,60,0,1,1,M,,2,,,,,,,
,,,,,,,,,,1,justine,2024-09-24_15h32.24.262,Motor_Task,2023.2.2,MacIntel,119.047619,159.1503,159.6657,3,1,0.5119,,6,1,61,1,1,2,R,,3,,,,,,,
,,,,,,,,,,1,justine,2024-09-24_15h32.24.262,Motor_Task,2023.2.2,MacIntel,119.047619,159.6661,160.2575,2,1,0.5872,,6,2,62,2,1,3,M,,2,,,,,,,
,,,,,,,,,,1,justine,2024-09-24_15h32.24.262,Motor_Task,2023.2.2,MacIntel,119.047619,160.258,160.7489,3,1,0.4869,,6,3,63,3,1,4,R,,3,,,,,,,
,,,,,,,,,,1,justine,2024-09-24_15h32.24.262,Motor_Task,2023.2.2,MacIntel,119.047619,160.7496,161.4082,1,1,0.6543,,6,4,64,4,1,5,I,,1,,,,,,,
,,,,,,,,,,1,justine,2024-09-24_15h32.24.262,Motor_Task,2023.2.2,MacIntel,119.047619,161.4087,162.0414,1,1,0.6294,,6,5,65,5,1,6,I,,1,,,,,,,
,,,,,,,,,,1,justine,2024-09-24_15h32.24.262,Motor_Task,2023.2.2,MacIntel,119.047619,162.0418,162.5834,3,1,0.5411,,6,6,66,6,1,7,R,,3,,,,,,,
,,,,,,,,,,1,justine,2024-09-24_15h32.24.262,Motor_Task,2023.2.2,MacIntel,119.047619,162.5838,163.0165,2,1,0.4261,,6,7,67,7,1,8,M,,2,,,,,,,
,,,,,,,,,,1,justine,2024-09-24_15h32.24.262,Motor_Task,2023.2.2,MacIntel,119.047619,163.0172,163.7248,4,1,0.7048,,6,8,68,8,1,9,L,,4,,,,,,,
,,,,,,,,,,1,justine,2024-09-24_15h32.24.262,Motor_Task,2023.2.2,MacIntel,119.047619,163.7253,164.2829,1,1,0.5529,,6,9,69,9,1,10,I,,1,,,,,,,
,,,,,,,,,,1,justine,2024-09-24_15h32.24.262,Motor_Task,2023.2.2,MacIntel,119.047619,164.2832,164.908,2,1,0.6234,,7,0,70,0,1,1,M,,2,,,,,,,
,,,,,,,,,,1,justine,2024-09-24_15h32.24.262,Motor_Task,2023.2.2,MacIntel,119.047619,164.9086,165.4249,3,1,0.5111,,7,1,71,1,1,2,R,,3,,,,,,,
,,,,,,,,,,1,justine,2024-09-24_15h32.24.262,Motor_Task,2023.2.2,MacIntel,119.047619,165.4256,166.0319,2,1,0.6061,,7,2,72,2,1,3,M,,2,,,,,,,
,,,,,,,,,,1,justine,2024-09-24_15h32.24.262,Motor_Task,2023.2.2,MacIntel,119.047619,166.0321,166.5247,3,1,0.4885,,7,3,73,3,1,4,R,,3,,,,,,,
,,,,,,,,,,1,justine,2024-09-24_15h32.24.262,Motor_Task,2023.2.2,MacIntel,119.047619,166.5254,167.1246,1,1,0.5979,,7,4,74,4,1,5,I,,1,,,,,,,
,,,,,,,,,,1,justine,2024-09-24_15h32.24.262,Motor_Task,2023.2.2,MacIntel,119.047619,167.1252,167.7417,1,1,0.6115,,7,5,75,5,1,6,I,,1,,,,,,,
,,,,,,,,,,1,justine,2024-09-24_15h32.24.262,Motor_Task,2023.2.2,MacIntel,119.047619,167.742,168.3166,3,1,0.5699,,7,6,76,6,1,7,R,,3,,,,,,,
,,,,,,,,,,1,justine,2024-09-24_15h32.24.262,Motor_Task,2023.2.2,MacIntel,119.047619,168.3171,168.7749,2,1,0.4562,,7,7,77,7,1,8,M,,2,,,,,,,
,,,,,,,,,,1,justine,2024-09-24_15h32.24.262,Motor_Task,2023.2.2,MacIntel,119.047619,168.7754,169.6329,4,1,0.8572,,7,8,78,8,1,9,L,,4,,,,,,,
,,,,,,,,,,1,justine,2024-09-24_15h32.24.262,Motor_Task,2023.2.2,MacIntel,119.047619,169.6332,170.2666,1,1,0.6273,,7,9,79,9,1,10,I,,1,,,,,,,
,,,,,,,,,,1,justine,2024-09-24_15h32.24.262,Motor_Task,2023.2.2,MacIntel,119.047619,170.2672,170.8499,2,1,0.5769,,8,0,80,0,1,1,M,,2,,,,,,,
,,,,,,,,,,1,justine,2024-09-24_15h32.24.262,Motor_Task,2023.2.2,MacIntel,119.047619,170.8503,171.524,3,1,0.6696,,8,1,81,1,1,2,R,,3,,,,,,,
,,,,,,,,,,1,justine,2024-09-24_15h32.24.262,Motor_Task,2023.2.2,MacIntel,119.047619,171.5245,172.5915,2,1,1.0618,,8,2,82,2,1,3,M,,2,,,,,,,
,,,,,,,,,,1,justine,2024-09-24_15h32.24.262,Motor_Task,2023.2.2,MacIntel,119.047619,172.5921,173.1998,3,1,0.6031,,8,3,83,3,1,4,R,,3,,,,,,,
,,,,,,,,,,1,justine,2024-09-24_15h32.24.262,Motor_Task,2023.2.2,MacIntel,119.047619,173.2005,173.6748,1,1,0.469,,8,4,84,4,1,5,I,,1,,,,,,,
,,,,,,,,,,1,justine,2024-09-24_15h32.24.262,Motor_Task,2023.2.2,MacIntel,119.047619,173.6754,174.2828,1,1,0.6038,,8,5,85,5,1,6,I,,1,,,,,,,
,,,,,,,,,,1,justine,2024-09-24_15h32.24.262,Motor_Task,2023.2.2,MacIntel,119.047619,174.2833,174.8164,3,1,0.5282,,8,6,86,6,1,7,R,,3,,,,,,,
,,,,,,,,,,1,justine,2024-09-24_15h32.24.262,Motor_Task,2023.2.2,MacIntel,119.047619,174.8169,175.5581,2,1,0.7347,,8,7,87,7,1,8,M,,2,,,,,,,
,,,,,,,,,,1,justine,2024-09-24_15h32.24.262,Motor_Task,2023.2.2,MacIntel,119.047619,175.5587,176.0498,4,1,0.4873,,8,8,88,8,1,9,L,,4,,,,,,,
,,,,,,,,,,1,justine,2024-09-24_15h32.24.262,Motor_Task,2023.2.2,MacIntel,119.047619,176.0503,176.675,1,1,0.6192,,8,9,89,9,1,10,I,,1,,,,,,,
,,,,,,,,,,1,justine,2024-09-24_15h32.24.262,Motor_Task,2023.2.2,MacIntel,119.047619,176.6757,177.1498,2,1,0.4728,,9,0,90,0,1,1,M,,2,,,,,,,
,,,,,,,,,,1,justine,2024-09-24_15h32.24.262,Motor_Task,2023.2.2,MacIntel,119.047619,177.1504,177.5999,3,1,0.4459,,9,1,91,1,1,2,R,,3,,,,,,,
,,,,,,,,,,1,justine,2024-09-24_15h32.24.262,Motor_Task,2023.2.2,MacIntel,119.047619,177.6004,178.0746,2,1,0.4691,,9,2,92,2,1,3,M,,2,,,,,,,
,,,,,,,,,,1,justine,2024-09-24_15h32.24.262,Motor_Task,2023.2.2,MacIntel,119.047619,178.075,178.5328,3,1,0.4564,,9,3,93,3,1,4,R,,3,,,,,,,
,,,,,,,,,,1,justine,2024-09-24_15h32.24.262,Motor_Task,2023.2.2,MacIntel,119.047619,178.5332,179.1164,1,1,0.5804,,9,4,94,4,1,5,I,,1,,,,,,,
,,,,,,,,,,1,justine,2024-09-24_15h32.24.262,Motor_Task,2023.2.2,MacIntel,119.047619,179.1169,179.7075,1,1,0.5861,,9,5,95,5,1,6,I,,1,,,,,,,
,,,,,,,,,,1,justine,2024-09-24_15h32.24.262,Motor_Task,2023.2.2,MacIntel,119.047619,179.7081,180.2657,3,1,0.5538,,9,6,96,6,1,7,R,,3,,,,,,,
,,,,,,,,,,1,justine,2024-09-24_15h32.24.262,Motor_Task,2023.2.2,MacIntel,119.047619,180.2663,180.7249,2,1,0.4547,,9,7,97,7,1,8,M,,2,,,,,,,
,,,,,,,,,,1,justine,2024-09-24_15h32.24.262,Motor_Task,2023.2.2,MacIntel,119.047619,180.7254,181.2078,4,1,0.4764,,9,8,98,8,1,9,L,,4,,,,,,,
,,,,,,,,,,1,justine,2024-09-24_15h32.24.262,Motor_Task,2023.2.2,MacIntel,119.047619,181.2081,181.7583,1,1,0.5489,,9,9,99,9,1,10,I,,1,,,,,,,
,,,,,,,,,,1,justine,2024-09-24_15h32.24.262,Motor_Task,2023.2.2,MacIntel,119.047619,181.7588,182.4576,2,1,0.6937,,10,0,100,0,1,1,M,,2,,,,,,,
,,,,,,,,,,1,justine,2024-09-24_15h32.24.262,Motor_Task,2023.2.2,MacIntel,119.047619,182.4581,183.133,3,1,0.6707,,10,1,101,1,1,2,R,,3,,,,,,,
,,,,,,,,,,1,justine,2024-09-24_15h32.24.262,Motor_Task,2023.2.2,MacIntel,119.047619,183.1335,183.8082,2,1,0.6739,,10,2,102,2,1,3,M,,2,,,,,,,
,,,,,,,,,,1,justine,2024-09-24_15h32.24.262,Motor_Task,2023.2.2,MacIntel,119.047619,183.8088,184.5415,3,1,0.7277,,10,3,103,3,1,4,R,,3,,,,,,,
,,,,,,,,,,1,justine,2024-09-24_15h32.24.262,Motor_Task,2023.2.2,MacIntel,119.047619,184.542,185.0249,1,1,0.48,,10,4,104,4,1,5,I,,1,,,,,,,
,,,,,,,,,,1,justine,2024-09-24_15h32.24.262,Motor_Task,2023.2.2,MacIntel,119.047619,185.0254,185.6917,1,1,0.6613,,10,5,105,5,1,6,I,,1,,,,,,,
,,,,,,,,,,1,justine,2024-09-24_15h32.24.262,Motor_Task,2023.2.2,MacIntel,119.047619,185.6921,186.2332,3,1,0.5354,,10,6,106,6,1,7,R,,3,,,,,,,
,,,,,,,,,,1,justine,2024-09-24_15h32.24.262,Motor_Task,2023.2.2,MacIntel,119.047619,186.2336,186.7334,2,1,0.4942,,10,7,107,7,1,8,M,,2,,,,,,,
,,,,,,,,,,1,justine,2024-09-24_15h32.24.262,Motor_Task,2023.2.2,MacIntel,119.047619,186.734,187.5916,4,1,0.8539,,10,8,108,8,1,9,L,,4,,,,,,,
,,,,,,,,,,1,justine,2024-09-24_15h32.24.262,Motor_Task,2023.2.2,MacIntel,119.047619,187.5922,188.1579,1,1,0.5621,,10,9,109,9,1,10,I,,1,,,,,,,
,,,,,,,,,,1,justine,2024-09-24_15h32.24.262,Motor_Task,2023.2.2,MacIntel,119.047619,188.1582,188.8,2,1,0.6411,,11,0,110,0,1,1,M,,2,,,,,,,
,,,,,,,,,,1,justine,2024-09-24_15h32.24.262,Motor_Task,2023.2.2,MacIntel,119.047619,188.8006,189.4582,3,1,0.6558,,11,1,111,1,1,2,R,,3,,,,,,,
,,,,,,,,,,1,justine,2024-09-24_15h32.24.262,Motor_Task,2023.2.2,MacIntel,119.047619,189.4587,190.1749,2,1,0.7117,,11,2,112,2,1,3,M,,2,,,,,,,
,,,,,,,,,,1,justine,2024-09-24_15h32.24.262,Motor_Task,2023.2.2,MacIntel,119.047619,190.1754,190.9912,3,1,0.8105,,11,3,113,3,1,4,R,,3,,,,,,,
,,,,,,,,,,1,justine,2024-09-24_15h32.24.262,Motor_Task,2023.2.2,MacIntel,119.047619,190.9915,191.6167,1,1,0.6217,,11,4,114,4,1,5,I,,1,,,,,,,
,,,,,,,,,,1,justine,2024-09-24_15h32.24.262,Motor_Task,2023.2.2,MacIntel,119.047619,191.6172,192.2165,1,1,0.5972,,11,5,115,5,1,6,I,,1,,,,,,,
,,,,,,,,,,1,justine,2024-09-24_15h32.24.262,Motor_Task,2023.2.2,MacIntel,119.047619,192.217,193.0748,3,1,0.8512,,11,6,116,6,1,7,R,,3,,,,,,,
,,,,,,,,,,1,justine,2024-09-24_15h32.24.262,Motor_Task,2023.2.2,MacIntel,119.047619,193.0753,193.6664,2,1,0.5871,,11,7,117,7,1,8,M,,2,,,,,,,
,,,,,,,,,,1,justine,2024-09-24_15h32.24.262,Motor_Task,2023.2.2,MacIntel,119.047619,193.6668,194.3833,4,1,0.7125,,11,8,118,8,1,9,L,,4,,,,,,,
,,,,,,,,,,1,justine,2024-09-24_15h32.24.262,Motor_Task,2023.2.2,MacIntel,119.047619,194.3838,195.0416,1,1,0.6522,,11,9,119,9,1,10,I,,1,,,,,,,
,,,,,,,,,,1,justine,2024-09-24_15h32.24.262,Motor_Task,2023.2.2,MacIntel,119.047619,195.0421,195.6167,2,1,0.5695,,12,0,120,0,1,1,M,,2,,,,,,,
,,,,,,,,,,1,justine,2024-09-24_15h32.24.262,Motor_Task,2023.2.2,MacIntel,119.047619,195.6172,196.0911,3,1,0.4686,,12,1,121,1,1,2,R,,3,,,,,,,
,,,,,,,,,,1,justine,2024-09-24_15h32.24.262,Motor_Task,2023.2.2,MacIntel,119.047619,196.0914,196.7166,2,1,0.6223,,12,2,122,2,1,3,M,,2,,,,,,,
,,,,,,,,,,1,justine,2024-09-24_15h32.24.262,Motor_Task,2023.2.2,MacIntel,119.047619,196.7171,197.2917,3,1,0.569,,12,3,123,3,1,4,R,,3,,,,,,,
,,,,,,,,,,1,justine,2024-09-24_15h32.24.262,Motor_Task,2023.2.2,MacIntel,119.047619,197.2923,197.8417,1,1,0.5446,,12,4,124,4,1,5,I,,1,,,,,,,
,,,,,,,,,,1,justine,2024-09-24_15h32.24.262,Motor_Task,2023.2.2,MacIntel,119.047619,197.8422,198.3583,1,1,0.511,,12,5,125,5,1,6,I,,1,,,,,,,
,,,,,,,,,,1,justine,2024-09-24_15h32.24.262,Motor_Task,2023.2.2,MacIntel,119.047619,198.3588,198.8332,2,0,0.4698,,12,6,126,6,1,7,R,,3,,,,,,,
,,,,,,,,,,1,justine,2024-09-24_15h32.24.262,Motor_Task,2023.2.2,MacIntel,119.047619,198.8338,199.65,2,1,0.812,,12,7,127,7,1,8,M,,2,,,,,,,
,,,,,,,,,,1,justine,2024-09-24_15h32.24.262,Motor_Task,2023.2.2,MacIntel,119.047619,199.6506,200.1917,4,1,0.5366,,12,8,128,8,1,9,L,,4,,,,,,,
,,,,,,,,,,1,justine,2024-09-24_15h32.24.262,Motor_Task,2023.2.2,MacIntel,119.047619,200.1922,200.7155,1,1,0.5187,,12,9,129,9,1,10,I,,1,,,,,,,
,,,,,,,,,,1,justine,2024-09-24_15h32.24.262,Motor_Task,2023.2.2,MacIntel,119.047619,200.716,201.3916,2,1,0.6696,,13,0,130,0,1,1,M,,2,,,,,,,
,,,,,,,,,,1,justine,2024-09-24_15h32.24.262,Motor_Task,2023.2.2,MacIntel,119.047619,201.3923,201.85,3,1,0.4569,,13,1,131,1,1,2,R,,3,,,,,,,
,,,,,,,,,,1,justine,2024-09-24_15h32.24.262,Motor_Task,2023.2.2,MacIntel,119.047619,201.8506,202.2831,2,1,0.4321,,13,2,132,2,1,3,M,,2,,,,,,,
,,,,,,,,,,1,justine,2024-09-24_15h32.24.262,Motor_Task,2023.2.2,MacIntel,119.047619,202.2834,202.7408,3,1,0.4567,,13,3,133,3,1,4,R,,3,,,,,,,
,,,,,,,,,,1,justine,2024-09-24_15h32.24.262,Motor_Task,2023.2.2,MacIntel,119.047619,202.741,203.4077,1,1,0.663,,13,4,134,4,1,5,I,,1,,,,,,,
,,,,,,,,,,1,justine,2024-09-24_15h32.24.262,Motor_Task,2023.2.2,MacIntel,119.047619,203.4083,203.9749,1,1,0.5645,,13,5,135,5,1,6,I,,1,,,,,,,
,,,,,,,,,,1,justine,2024-09-24_15h32.24.262,Motor_Task,2023.2.2,MacIntel,119.047619,203.9754,204.625,3,1,0.6446,,13,6,136,6,1,7,R,,3,,,,,,,
,,,,,,,,,,1,justine,2024-09-24_15h32.24.262,Motor_Task,2023.2.2,MacIntel,119.047619,204.6255,205.1916,2,1,0.5639,,13,7,137,7,1,8,M,,2,,,,,,,
,,,,,,,,,,1,justine,2024-09-24_15h32.24.262,Motor_Task,2023.2.2,MacIntel,119.047619,205.1921,205.8084,4,1,0.6108,,13,8,138,8,1,9,L,,4,,,,,,,
,,,,,,,,,,1,justine,2024-09-24_15h32.24.262,Motor_Task,2023.2.2,MacIntel,119.047619,205.8089,206.2583,1,1,0.4482,,13,9,139,9,1,10,I,,1,,,,,,,
,,,,,,,,,,1,justine,2024-09-24_15h32.24.262,Motor_Task,2023.2.2,MacIntel,119.047619,206.2589,206.75,2,1,0.4905,,14,0,140,0,1,1,M,,2,,,,,,,
,,,,,,,,,,1,justine,2024-09-24_15h32.24.262,Motor_Task,2023.2.2,MacIntel,119.047619,206.7505,207.2001,3,1,0.4449,,14,1,141,1,1,2,R,,3,,,,,,,
,,,,,,,,,,1,justine,2024-09-24_15h32.24.262,Motor_Task,2023.2.2,MacIntel,119.047619,207.2006,207.8417,2,1,0.6368,,14,2,142,2,1,3,M,,2,,,,,,,
,,,,,,,,,,1,justine,2024-09-24_15h32.24.262,Motor_Task,2023.2.2,MacIntel,119.047619,207.8423,208.4165,3,1,0.5736,,14,3,143,3,1,4,R,,3,,,,,,,
,,,,,,,,,,1,justine,2024-09-24_15h32.24.262,Motor_Task,2023.2.2,MacIntel,119.047619,208.4169,209.1587,1,1,0.7413,,14,4,144,4,1,5,I,,1,,,,,,,
,,,,,,,,,,1,justine,2024-09-24_15h32.24.262,Motor_Task,2023.2.2,MacIntel,119.047619,209.1592,209.6749,1,1,0.5143,,14,5,145,5,1,6,I,,1,,,,,,,
,,,,,,,,,,1,justine,2024-09-24_15h32.24.262,Motor_Task,2023.2.2,MacIntel,119.047619,209.6756,210.4,3,1,0.7195,,14,6,146,6,1,7,R,,3,,,,,,,
,,,,,,,,,,1,justine,2024-09-24_15h32.24.262,Motor_Task,2023.2.2,MacIntel,119.047619,210.4006,211.0167,2,1,0.6099,,14,7,147,7,1,8,M,,2,,,,,,,
,,,,,,,,,,1,justine,2024-09-24_15h32.24.262,Motor_Task,2023.2.2,MacIntel,119.047619,211.0172,211.5581,4,1,0.5397,,14,8,148,8,1,9,L,,4,,,,,,,
,,,,,,,,,,1,justine,2024-09-24_15h32.24.262,Motor_Task,2023.2.2,MacIntel,119.047619,211.5586,212.0834,1,1,0.5212,,14,9,149,9,1,10,I,,1,,,,,,,
,,,,,,,,,,1,justine,2024-09-24_15h32.24.262,Motor_Task,2023.2.2,MacIntel,119.047619,212.084,212.7584,2,1,0.669,,15,0,150,0,1,1,M,,2,,,,,,,
,,,,,,,,,,1,justine,2024-09-24_15h32.24.262,Motor_Task,2023.2.2,MacIntel,119.047619,212.7588,213.2746,3,1,0.5156,,15,1,151,1,1,2,R,,3,,,,,,,
,,,,,,,,,,1,justine,2024-09-24_15h32.24.262,Motor_Task,2023.2.2,MacIntel,119.047619,213.2749,213.8911,2,1,0.6121,,15,2,152,2,1,3,M,,2,,,,,,,
,,,,,,,,,,1,justine,2024-09-24_15h32.24.262,Motor_Task,2023.2.2,MacIntel,119.047619,213.8915,214.4,3,1,0.5046,,15,3,153,3,1,4,R,,3,,,,,,,
,,,,,,,,,,1,justine,2024-09-24_15h32.24.262,Motor_Task,2023.2.2,MacIntel,119.047619,214.4005,214.9416,1,1,0.5372,,15,4,154,4,1,5,I,,1,,,,,,,
,,,,,,,,,,1,justine,2024-09-24_15h32.24.262,Motor_Task,2023.2.2,MacIntel,119.047619,214.9421,215.6077,1,1,0.6652,,15,5,155,5,1,6,I,,1,,,,,,,
,,,,,,,,,,1,justine,2024-09-24_15h32.24.262,Motor_Task,2023.2.2,MacIntel,119.047619,215.608,216.1834,3,1,0.5705,,15,6,156,6,1,7,R,,3,,,,,,,
,,,,,,,,,,1,justine,2024-09-24_15h32.24.262,Motor_Task,2023.2.2,MacIntel,119.047619,216.1841,216.6667,2,1,0.4812,,15,7,157,7,1,8,M,,2,,,,,,,
,,,,,,,,,,1,justine,2024-09-24_15h32.24.262,Motor_Task,2023.2.2,MacIntel,119.047619,216.6673,217.3,4,1,0.6322,,15,8,158,8,1,9,L,,4,,,,,,,
,,,,,,,,,,1,justine,2024-09-24_15h32.24.262,Motor_Task,2023.2.2,MacIntel,119.047619,217.3007,217.7666,1,1,0.4625,,15,9,159,9,1,10,I,,1,,,,,,,
,,,,,,,,,,1,justine,2024-09-24_15h32.24.262,Motor_Task,2023.2.2,MacIntel,119.047619,217.7672,218.3994,2,1,0.6287,,16,0,160,0,1,1,M,,2,,,,,,,
,,,,,,,,,,1,justine,2024-09-24_15h32.24.262,Motor_Task,2023.2.2,MacIntel,119.047619,218.3999,218.9251,3,1,0.5212,,16,1,161,1,1,2,R,,3,,,,,,,
,,,,,,,,,,1,justine,2024-09-24_15h32.24.262,Motor_Task,2023.2.2,MacIntel,119.047619,218.9256,219.533,2,1,0.606,,16,2,162,2,1,3,M,,2,,,,,,,
,,,,,,,,,,1,justine,2024-09-24_15h32.24.262,Motor_Task,2023.2.2,MacIntel,119.047619,219.5333,220.0501,3,1,0.5146,,16,3,163,3,1,4,R,,3,,,,,,,
,,,,,,,,,,1,justine,2024-09-24_15h32.24.262,Motor_Task,2023.2.2,MacIntel,119.047619,220.0507,220.7074,1,1,0.6525,,16,4,164,4,1,5,I,,1,,,,,,,
,,,,,,,,,,1,justine,2024-09-24_15h32.24.262,Motor_Task,2023.2.2,MacIntel,119.047619,220.7079,221.2909,1,1,0.5781,,16,5,165,5,1,6,I,,1,,,,,,,
,,,,,,,,,,1,justine,2024-09-24_15h32.24.262,Motor_Task,2023.2.2,MacIntel,119.047619,221.2914,221.8168,3,1,0.5226,,16,6,166,6,1,7,R,,3,,,,,,,
,,,,,,,,,,1,justine,2024-09-24_15h32.24.262,Motor_Task,2023.2.2,MacIntel,119.047619,221.8172,222.3164,2,1,0.4952,,16,7,167,7,1,8,M,,2,,,,,,,
,,,,,,,,,,1,justine,2024-09-24_15h32.24.262,Motor_Task,2023.2.2,MacIntel,119.047619,222.3169,222.7333,3,0,0.4148,,16,8,168,8,1,9,L,,4,,,,,,,
,,,,,,,,,,1,justine,2024-09-24_15h32.24.262,Motor_Task,2023.2.2,MacIntel,119.047619,222.7336,223.4405,1,1,0.7031,,16,9,169,9,1,10,I,,1,,,,,,,
,,,,,,,,,,1,justine,2024-09-24_15h32.24.262,Motor_Task,2023.2.2,MacIntel,119.047619,223.441,224.1334,2,1,0.6876,,17,0,170,0,1,1,M,,2,,,,,,,
,,,,,,,,,,1,justine,2024-09-24_15h32.24.262,Motor_Task,2023.2.2,MacIntel,119.047619,224.1339,224.7667,3,1,0.628,,17,1,171,1,1,2,R,,3,,,,,,,
,,,,,,,,,,1,justine,2024-09-24_15h32.24.262,Motor_Task,2023.2.2,MacIntel,119.047619,224.7673,225.3915,2,1,0.6186,,17,2,172,2,1,3,M,,2,,,,,,,
,,,,,,,,,,1,justine,2024-09-24_15h32.24.262,Motor_Task,2023.2.2,MacIntel,119.047619,225.3921,225.9667,3,1,0.5727,,17,3,173,3,1,4,R,,3,,,,,,,
,,,,,,,,,,1,justine,2024-09-24_15h32.24.262,Motor_Task,2023.2.2,MacIntel,119.047619,225.9673,226.5585,1,1,0.585,,17,4,174,4,1,5,I,,1,,,,,,,
,,,,,,,,,,1,justine,2024-09-24_15h32.24.262,Motor_Task,2023.2.2,MacIntel,119.047619,226.559,227.1156,1,1,0.553,,17,5,175,5,1,6,I,,1,,,,,,,
,,,,,,,,,,1,justine,2024-09-24_15h32.24.262,Motor_Task,2023.2.2,MacIntel,119.047619,227.1162,227.7329,3,1,0.6119,,17,6,176,6,1,7,R,,3,,,,,,,
,,,,,,,,,,1,justine,2024-09-24_15h32.24.262,Motor_Task,2023.2.2,MacIntel,119.047619,227.7335,228.2334,2,1,0.4973,,17,7,177,7,1,8,M,,2,,,,,,,
,,,,,,,,,,1,justine,2024-09-24_15h32.24.262,Motor_Task,2023.2.2,MacIntel,119.047619,228.2339,228.8751,4,1,0.6397,,17,8,178,8,1,9,L,,4,,,,,,,
,,,,,,,,,,1,justine,2024-09-24_15h32.24.262,Motor_Task,2023.2.2,MacIntel,119.047619,228.8756,229.4419,1,1,0.5586,,17,9,179,9,1,10,I,,1,,,,,,,
,,,,,,,,,,1,justine,2024-09-24_15h32.24.262,Motor_Task,2023.2.2,MacIntel,119.047619,229.4423,230.1335,2,1,0.6854,,18,0,180,0,1,1,M,,2,,,,,,,
,,,,,,,,,,1,justine,2024-09-24_15h32.24.262,Motor_Task,2023.2.2,MacIntel,119.047619,230.1343,230.7916,3,1,0.6564,,18,1,181,1,1,2,R,,3,,,,,,,
,,,,,,,,,,1,justine,2024-09-24_15h32.24.262,Motor_Task,2023.2.2,MacIntel,119.047619,230.7922,231.3085,2,1,0.5118,,18,2,182,2,1,3,M,,2,,,,,,,
,,,,,,,,,,1,justine,2024-09-24_15h32.24.262,Motor_Task,2023.2.2,MacIntel,119.047619,231.309,231.9168,3,1,0.6035,,18,3,183,3,1,4,R,,3,,,,,,,
,,,,,,,,,,1,justine,2024-09-24_15h32.24.262,Motor_Task,2023.2.2,MacIntel,119.047619,231.9173,232.5418,1,1,0.6192,,18,4,184,4,1,5,I,,1,,,,,,,
,,,,,,,,,,1,justine,2024-09-24_15h32.24.262,Motor_Task,2023.2.2,MacIntel,119.047619,232.5424,233.0667,1,1,0.5223,,18,5,185,5,1,6,I,,1,,,,,,,
,,,,,,,,,,1,justine,2024-09-24_15h32.24.262,Motor_Task,2023.2.2,MacIntel,119.047619,233.0672,233.7499,3,1,0.6793,,18,6,186,6,1,7,R,,3,,,,,,,
,,,,,,,,,,1,justine,2024-09-24_15h32.24.262,Motor_Task,2023.2.2,MacIntel,119.047619,233.7501,234.2582,2,1,0.5021,,18,7,187,7,1,8,M,,2,,,,,,,
,,,,,,,,,,1,justine,2024-09-24_15h32.24.262,Motor_Task,2023.2.2,MacIntel,119.047619,234.2584,234.8086,4,1,0.5449,,18,8,188,8,1,9,L,,4,,,,,,,
,,,,,,,,,,1,justine,2024-09-24_15h32.24.262,Motor_Task,2023.2.2,MacIntel,119.047619,234.8091,235.3748,1,1,0.5613,,18,9,189,9,1,10,I,,1,,,,,,,
,,,,,,,,,,1,justine,2024-09-24_15h32.24.262,Motor_Task,2023.2.2,MacIntel,119.047619,235.3749,235.9667,2,1,0.588,,19,0,190,0,1,1,M,,2,,,,,,,
,,,,,,,,,,1,justine,2024-09-24_15h32.24.262,Motor_Task,2023.2.2,MacIntel,119.047619,235.9673,236.4079,3,1,0.439,,19,1,191,1,1,2,R,,3,,,,,,,
,,,,,,,,,,1,justine,2024-09-24_15h32.24.262,Motor_Task,2023.2.2,MacIntel,119.047619,236.4084,236.8422,2,1,0.433,,19,2,192,2,1,3,M,,2,,,,,,,
,,,,,,,,,,1,justine,2024-09-24_15h32.24.262,Motor_Task,2023.2.2,MacIntel,119.047619,236.8429,237.2916,3,1,0.4437,,19,3,193,3,1,4,R,,3,,,,,,,
,,,,,,,,,,1,justine,2024-09-24_15h32.24.262,Motor_Task,2023.2.2,MacIntel,119.047619,237.2921,237.8748,1,1,0.5783,,19,4,194,4,1,5,I,,1,,,,,,,
,,,,,,,,,,1,justine,2024-09-24_15h32.24.262,Motor_Task,2023.2.2,MacIntel,119.047619,237.8754,238.4086,1,1,0.5322,,19,5,195,5,1,6,I,,1,,,,,,,
,,,,,,,,,,1,justine,2024-09-24_15h32.24.262,Motor_Task,2023.2.2,MacIntel,119.047619,238.4092,239.0335,3,1,0.6203,,19,6,196,6,1,7,R,,3,,,,,,,
,,,,,,,,,,1,justine,2024-09-24_15h32.24.262,Motor_Task,2023.2.2,MacIntel,119.047619,239.0341,239.7251,2,1,0.6863,,19,7,197,7,1,8,M,,2,,,,,,,
,,,,,,,,,,1,justine,2024-09-24_15h32.24.262,Motor_Task,2023.2.2,MacIntel,119.047619,239.7256,240.3742,4,1,0.6446,,19,8,198,8,1,9,L,,4,,,,,,,
,,,,,,,,,,1,justine,2024-09-24_15h32.24.262,Motor_Task,2023.2.2,MacIntel,119.047619,240.3747,240.8501,1,1,0.4703,,19,9,199,9,1,10,I,,1,,,,,,,
,,,,,,,,,,1,justine,2024-09-24_15h32.24.262,Motor_Task,2023.2.2,MacIntel,119.047619,240.861,241.3751,2,1,0.5108,,,,,,,1,M,,2,0,0,0,0,1,,
,,,,,,,,,,1,justine,2024-09-24_15h32.24.262,Motor_Task,2023.2.2,MacIntel,119.047619,241.376,241.8917,3,1,0.5104,,,,,,,2,R,,3,0,1,1,1,1,,
,,,,,,,,,,1,justine,2024-09-24_15h32.24.262,Motor_Task,2023.2.2,MacIntel,119.047619,241.8922,242.3751,1,1,0.4806,,,,,,,6,I,,1,0,2,2,5,1,,
,,,,,,,,,,1,justine,2024-09-24_15h32.24.262,Motor_Task,2023.2.2,MacIntel,119.047619,242.3757,242.9501,3,1,0.5715,,,,,,,4,R,,3,0,3,3,3,1,,
,,,,,,,,,,1,justine,2024-09-24_15h32.24.262,Motor_Task,2023.2.2,MacIntel,119.047619,242.9506,243.4497,1,1,0.4936,,,,,,,10,I,,1,0,4,4,9,1,,
,,,,,,,,,,1,justine,2024-09-24_15h32.24.262,Motor_Task,2023.2.2,MacIntel,119.047619,243.4499,243.9838,2,1,0.5334,,,,,,,8,M,,2,0,5,5,7,1,,
,,,,,,,,,,1,justine,2024-09-24_15h32.24.262,Motor_Task,2023.2.2,MacIntel,119.047619,243.9844,244.6084,1,1,0.62,,,,,,,5,I,,1,0,6,6,4,1,,
,,,,,,,,,,1,justine,2024-09-24_15h32.24.262,Motor_Task,2023.2.2,MacIntel,119.047619,244.6091,245.2668,4,1,0.6557,,,,,,,9,L,,4,0,7,7,8,1,,
,,,,,,,,,,1,justine,2024-09-24_15h32.24.262,Motor_Task,2023.2.2,MacIntel,119.047619,245.2673,245.6836,1,0,0.4149,,,,,,,3,M,,2,0,8,8,2,1,,
,,,,,,,,,,1,justine,2024-09-24_15h32.24.262,Motor_Task,2023.2.2,MacIntel,119.047619,245.6841,246.5914,3,1,0.9029,,,,,,,7,R,,3,0,9,9,6,1,,
,,,,,,,,,,1,justine,2024-09-24_15h32.24.262,Motor_Task,2023.2.2,MacIntel,119.047619,246.5916,247.2003,3,1,0.6081,,,,,,,7,R,,3,1,0,10,6,1,,
,,,,,,,,,,1,justine,2024-09-24_15h32.24.262,Motor_Task,2023.2.2,MacIntel,119.047619,247.2009,247.9999,1,1,0.7946,,,,,,,6,I,,1,1,1,11,5,1,,
,,,,,,,,,,1,justine,2024-09-24_15h32.24.262,Motor_Task,2023.2.2,MacIntel,119.047619,248.0003,248.5502,1,1,0.546,,,,,,,10,I,,1,1,2,12,9,1,,
,,,,,,,,,,1,justine,2024-09-24_15h32.24.262,Motor_Task,2023.2.2,MacIntel,119.047619,248.5508,249.1,2,1,0.5443,,,,,,,8,M,,2,1,3,13,7,1,,
,,,,,,,,,,1,justine,2024-09-24_15h32.24.262,Motor_Task,2023.2.2,MacIntel,119.047619,249.1004,249.6331,3,1,0.528,,,,,,,2,R,,3,1,4,14,1,1,,
,,,,,,,,,,1,justine,2024-09-24_15h32.24.262,Motor_Task,2023.2.2,MacIntel,119.047619,249.6334,250.3072,2,1,0.6693,,,,,,,3,M,,2,1,5,15,2,1,,
,,,,,,,,,,1,justine,2024-09-24_15h32.24.262,Motor_Task,2023.2.2,MacIntel,119.047619,250.3074,250.7919,3,0,0.4821,,,,,,,9,L,,4,1,6,16,8,1,,
,,,,,,,,,,1,justine,2024-09-24_15h32.24.262,Motor_Task,2023.2.2,MacIntel,119.047619,250.7924,251.5002,2,0,0.7031,,,,,,,4,R,,3,1,7,17,3,1,,
,,,,,,,,,,1,justine,2024-09-24_15h32.24.262,Motor_Task,2023.2.2,MacIntel,119.047619,251.5007,252.4835,2,1,0.9787,,,,,,,1,M,,2,1,8,18,0,1,,
,,,,,,,,,,1,justine,2024-09-24_15h32.24.262,Motor_Task,2023.2.2,MacIntel,119.047619,252.4841,253.0502,1,1,0.5612,,,,,,,5,I,,1,1,9,19,4,1,,
,,,,,,,,,,1,justine,2024-09-24_15h32.24.262,Motor_Task,2023.2.2,MacIntel,119.047619,253.0507,253.6087,2,1,0.5561,,,,,,,3,M,,2,2,0,20,2,1,,
,,,,,,,,,,1,justine,2024-09-24_15h32.24.262,Motor_Task,2023.2.2,MacIntel,119.047619,253.6093,254.3081,1,1,0.6947,,,,,,,6,I,,1,2,1,21,5,1,,
,,,,,,,,,,1,justine,2024-09-24_15h32.24.262,Motor_Task,2023.2.2,MacIntel,119.047619,254.3085,254.85,1,1,0.5409,,,,,,,10,I,,1,2,2,22,9,1,,
,,,,,,,,,,1,justine,2024-09-24_15h32.24.262,Motor_Task,2023.2.2,MacIntel,119.047619,254.8505,255.4499,2,1,0.5968,,,,,,,8,M,,2,2,3,23,7,1,,
,,,,,,,,,,1,justine,2024-09-24_15h32.24.262,Motor_Task,2023.2.2,MacIntel,119.047619,255.4505,256.1082,1,1,0.6572,,,,,,,5,I,,1,2,4,24,4,1,,
,,,,,,,,,,1,justine,2024-09-24_15h32.24.262,Motor_Task,2023.2.2,MacIntel,119.047619,256.1085,256.8743,3,1,0.7627,,,,,,,2,R,,3,2,5,25,1,1,,
,,,,,,,,,,1,justine,2024-09-24_15h32.24.262,Motor_Task,2023.2.2,MacIntel,119.047619,256.8747,257.3917,2,1,0.5109,,,,,,,1,M,,2,2,6,26,0,1,,
,,,,,,,,,,1,justine,2024-09-24_15h32.24.262,Motor_Task,2023.2.2,MacIntel,119.047619,257.3923,258.0502,3,1,0.6546,,,,,,,7,R,,3,2,7,27,6,1,,
,,,,,,,,,,1,justine,2024-09-24_15h32.24.262,Motor_Task,2023.2.2,MacIntel,119.047619,258.0506,258.6585,3,1,0.6058,,,,,,,4,R,,3,2,8,28,3,1,,
,,,,,,,,,,1,justine,2024-09-24_15h32.24.262,Motor_Task,2023.2.2,MacIntel,119.047619,258.6591,259.3752,4,1,0.7109,,,,,,,9,L,,4,2,9,29,8,1,,
,,,,,,,,,,1,justine,2024-09-24_15h32.24.262,Motor_Task,2023.2.2,MacIntel,119.047619,259.3758,259.9586,1,1,0.5783,,,,,,,5,I,,1,3,0,30,4,1,,
,,,,,,,,,,1,justine,2024-09-24_15h32.24.262,Motor_Task,2023.2.2,MacIntel,119.047619,259.9591,260.5501,1,1,0.5858,,,,,,,10,I,,1,3,1,31,9,1,,
,,,,,,,,,,1,justine,2024-09-24_15h32.24.262,Motor_Task,2023.2.2,MacIntel,119.047619,260.5506,261.4502,3,1,0.8963,,,,,,,7,R,,3,3,2,32,6,1,,
,,,,,,,,,,1,justine,2024-09-24_15h32.24.262,Motor_Task,2023.2.2,MacIntel,119.047619,261.4507,261.9914,1,1,0.5401,,,,,,,6,I,,1,3,3,33,5,1,,
,,,,,,,,,,1,justine,2024-09-24_15h32.24.262,Motor_Task,2023.2.2,MacIntel,119.047619,261.9917,262.5919,2,1,0.5962,,,,,,,3,M,,2,3,4,34,2,1,,
,,,,,,,,,,1,justine,2024-09-24_15h32.24.262,Motor_Task,2023.2.2,MacIntel,119.047619,262.5924,263.1082,3,1,0.5117,,,,,,,4,R,,3,3,5,35,3,1,,
,,,,,,,,,,1,justine,2024-09-24_15h32.24.262,Motor_Task,2023.2.2,MacIntel,119.047619,263.1088,264.1086,3,1,0.9952,,,,,,,2,R,,3,3,6,36,1,1,,
,,,,,,,,,,1,justine,2024-09-24_15h32.24.262,Motor_Task,2023.2.2,MacIntel,119.047619,264.109,264.7991,2,1,0.6896,,,,,,,1,M,,2,3,7,37,0,1,,
,,,,,,,,,,1,justine,2024-09-24_15h32.24.262,Motor_Task,2023.2.2,MacIntel,119.047619,264.7996,266.0665,4,1,1.2628,,,,,,,9,L,,4,3,8,38,8,1,,
,,,,,,,,,,1,justine,2024-09-24_15h32.24.262,Motor_Task,2023.2.2,MacIntel,119.047619,266.0667,266.7252,2,1,0.6547,,,,,,,8,M,,2,3,9,39,7,1,,
,,,,,,,,,,1,justine,2024-09-24_15h32.24.262,Motor_Task,2023.2.2,MacIntel,119.047619,266.7257,267.2086,1,1,0.4776,,,,,,,5,I,,1,4,0,40,4,1,,
,,,,,,,,,,1,justine,2024-09-24_15h32.24.262,Motor_Task,2023.2.2,MacIntel,119.047619,267.2092,267.767,1,1,0.5559,,,,,,,10,I,,1,4,1,41,9,1,,
,,,,,,,,,,1,justine,2024-09-24_15h32.24.262,Motor_Task,2023.2.2,MacIntel,119.047619,267.7676,268.5171,3,1,0.7452,,,,,,,2,R,,3,4,2,42,1,1,,
,,,,,,,,,,1,justine,2024-09-24_15h32.24.262,Motor_Task,2023.2.2,MacIntel,119.047619,268.5177,269.0253,3,1,0.5049,,,,,,,7,R,,3,4,3,43,6,1,,
,,,,,,,,,,1,justine,2024-09-24_15h32.24.262,Motor_Task,2023.2.2,MacIntel,119.047619,269.0258,269.6243,1,1,0.5944,,,,,,,6,I,,1,4,4,44,5,1,,
,,,,,,,,,,1,justine,2024-09-24_15h32.24.262,Motor_Task,2023.2.2,MacIntel,119.047619,269.6246,270.1586,2,1,0.5288,,,,,,,8,M,,2,4,5,45,7,1,,
,,,,,,,,,,1,justine,2024-09-24_15h32.24.262,Motor_Task,2023.2.2,MacIntel,119.047619,270.1592,270.6666,3,1,0.5032,,,,,,,4,R,,3,4,6,46,3,1,,
,,,,,,,,,,1,justine,2024-09-24_15h32.24.262,Motor_Task,2023.2.2,MacIntel,119.047619,270.6671,271.4754,2,1,0.8035,,,,,,,1,M,,2,4,7,47,0,1,,
,,,,,,,,,,1,justine,2024-09-24_15h32.24.262,Motor_Task,2023.2.2,MacIntel,119.047619,271.4761,272.3917,4,1,0.9109,,,,,,,9,L,,4,4,8,48,8,1,,
,,,,,,,,,,1,justine,2024-09-24_15h32.24.262,Motor_Task,2023.2.2,MacIntel,119.047619,272.392,273.1253,2,1,0.7278,,,,,,,3,M,,2,4,9,49,2,1,,
,,,,,,,,,,1,justine,2024-09-24_15h32.24.262,Motor_Task,2023.2.2,MacIntel,119.047619,,,,,,,,,,,,,,,,,,,,,273.1258,277.1255