Trigger.started,Trigger.stopped,key_resp_4.keys,mouse.x,mouse.y,mouse.leftButton,mouse.midButton,mouse.rightButton,Session,Subject,date,expName,psychopyVersion,OS,frameRate,complex_block.started,complex_block.stopped,key_resp.keys,key_resp.corr,key_resp.rt,key_resp.duration,complex_block_loop.thisRepN,complex_block_loop.thisTrialN,complex_block_loop.thisN,complex_block_loop.thisIndex,complex_block_loop.ran,trial,finger,markerPos,correctResp,new_block_loop.thisRepN,new_block_loop.thisTrialN,new_block_loop.thisN,new_block_loop.thisIndex,new_block_loop.ran,endBuffer.started,endBuffer.stopped
0.0001,1.2623,,-0.060664062,-0.335872396,1,0,0,1,Kevin T,2024-09-24_15h34.08.474,Motor_Task,2023.2.2,MacIntel,58.82352941,,,,,,,,,,,,,,,,,,,,,,
,,,,,,,,1,Kevin T,2024-09-24_15h34.08.474,Motor_Task,2023.2.2,MacIntel,58.82352941,1.2718,1.8465,2,1,0.5657,,0,0,0,0,1,1,M,,2,,,,,,,
,,,,,,,,1,Kevin T,2024-09-24_15h34.08.474,Motor_Task,2023.2.2,MacIntel,58.82352941,1.8469,2.2458,3,1,0.3984,,0,1,1,1,1,2,R,,3,,,,,,,
,,,,,,,,1,Kevin T,2024-09-24_15h34.08.474,Motor_Task,2023.2.2,MacIntel,58.82352941,2.2462,2.73,2,1,0.476,,0,2,2,2,1,3,M,,2,,,,,,,
,,,,,,,,1,Kevin T,2024-09-24_15h34.08.474,Motor_Task,2023.2.2,MacIntel,58.82352941,2.7305,3.1299,3,1,0.387,,0,3,3,3,1,4,R,,3,,,,,,,
,,,,,,,,1,Kevin T,2024-09-24_15h34.08.474,Motor_Task,2023.2.2,MacIntel,58.82352941,3.1303,3.6467,1,1,0.5078,,0,4,4,4,1,5,I,,1,,,,,,,
,,,,,,,,1,Kevin T,2024-09-24_15h34.08.474,Motor_Task,2023.2.2,MacIntel,58.82352941,3.6472,4.1297,1,1,0.4734,,0,5,5,5,1,6,I,,1,,,,,,,
,,,,,,,,1,Kevin T,2024-09-24_15h34.08.474,Motor_Task,2023.2.2,MacIntel,58.82352941,4.1303,4.8798,3,1,0.7363,,0,6,6,6,1,7,R,,3,,,,,,,
,,,,,,,,1,Kevin T,2024-09-24_15h34.08.474,Motor_Task,2023.2.2,MacIntel,58.82352941,4.88,5.3801,2,1,0.4887,,0,7,7,7,1,8,M,,2,,,,,,,
,,,,,,,,1,Kevin T,2024-09-24_15h34.08.474,Motor_Task,2023.2.2,MacIntel,58.82352941,5.3807,5.9298,4,1,0.5472,,0,8,8,8,1,9,L,,4,,,,,,,
,,,,,,,,1,Kevin T,2024-09-24_15h34.08.474,Motor_Task,2023.2.2,MacIntel,58.82352941,5.9299,6.447,1,1,0.5058,,0,9,9,9,1,10,I,,1,,,,,,,
,,,,,,,,1,Kevin T,2024-09-24_15h34.08.474,Motor_Task,2023.2.2,MacIntel,58.82352941,6.4475,6.913,3,0,0.4647,,1,0,10,0,1,1,M,,2,,,,,,,
,,,,,,,,1,Kevin T,2024-09-24_15h34.08.474,Motor_Task,2023.2.2,MacIntel,58.82352941,6.9132,7.5298,3,1,0.6136,,1,1,11,1,1,2,R,,3,,,,,,,
,,,,,,,,1,Kevin T,2024-09-24_15h34.08.474,Motor_Task,2023.2.2,MacIntel,58.82352941,7.5299,8.1136,2,1,0.5711,,1,2,12,2,1,3,M,,2,,,,,,,
,,,,,,,,1,Kevin T,2024-09-24_15h34.08.474,Motor_Task,2023.2.2,MacIntel,58.82352941,8.1141,8.6468,3,1,0.5307,,1,3,13,3,1,4,R,,3,,,,,,,
,,,,,,,,1,Kevin T,2024-09-24_15h34.08.474,Motor_Task,2023.2.2,MacIntel,58.82352941,8.6472,9.1802,1,1,0.5248,,1,4,14,4,1,5,I,,1,,,,,,,
,,,,,,,,1,Kevin T,2024-09-24_15h34.08.474,Motor_Task,2023.2.2,MacIntel,58.82352941,9.1806,9.7304,1,1,0.5374,,1,5,15,5,1,6,I,,1,,,,,,,
,,,,,,,,1,Kevin T,2024-09-24_15h34.08.474,Motor_Task,2023.2.2,MacIntel,58.82352941,9.7308,10.2635,3,1,0.5206,,1,6,16,6,1,7,R,,3,,,,,,,
,,,,,,,,1,Kevin T,2024-09-24_15h34.08.474,Motor_Task,2023.2.2,MacIntel,58.82352941,10.2638,10.7632,2,1,0.4872,,1,7,17,7,1,8,M,,2,,,,,,,
,,,,,,,,1,Kevin T,2024-09-24_15h34.08.474,Motor_Task,2023.2.2,MacIntel,58.82352941,10.7637,11.3469,4,1,0.5721,,1,8,18,8,1,9,L,,4,,,,,,,
,,,,,,,,1,Kevin T,2024-09-24_15h34.08.474,Motor_Task,2023.2.2,MacIntel,58.82352941,11.3474,11.7803,1,1,0.4323,,1,9,19,9,1,10,I,,1,,,,,,,
,,,,,,,,1,Kevin T,2024-09-24_15h34.08.474,Motor_Task,2023.2.2,MacIntel,58.82352941,11.7808,12.2637,2,1,0.4704,,2,0,20,0,1,1,M,,2,,,,,,,
,,,,,,,,1,Kevin T,2024-09-24_15h34.08.474,Motor_Task,2023.2.2,MacIntel,58.82352941,12.2641,12.7136,3,1,0.4382,,2,1,21,1,1,2,R,,3,,,,,,,
,,,,,,,,1,Kevin T,2024-09-24_15h34.08.474,Motor_Task,2023.2.2,MacIntel,58.82352941,12.714,13.1306,2,1,0.4044,,2,2,22,2,1,3,M,,2,,,,,,,
,,,,,,,,1,Kevin T,2024-09-24_15h34.08.474,Motor_Task,2023.2.2,MacIntel,58.82352941,13.1311,13.5638,3,1,0.423,,2,3,23,3,1,4,R,,3,,,,,,,
,,,,,,,,1,Kevin T,2024-09-24_15h34.08.474,Motor_Task,2023.2.2,MacIntel,58.82352941,13.5643,14.0471,1,1,0.4701,,2,4,24,4,1,5,I,,1,,,,,,,
,,,,,,,,1,Kevin T,2024-09-24_15h34.08.474,Motor_Task,2023.2.2,MacIntel,58.82352941,14.0476,14.5462,1,1,0.4871,,2,5,25,5,1,6,I,,1,,,,,,,
,,,,,,,,1,Kevin T,2024-09-24_15h34.08.474,Motor_Task,2023.2.2,MacIntel,58.82352941,14.5465,15.1303,4,0,0.5824,,2,6,26,6,1,7,R,,3,,,,,,,
,,,,,,,,1,Kevin T,2024-09-24_15h34.08.474,Motor_Task,2023.2.2,MacIntel,58.82352941,15.1306,15.2471,3,0,0.1029,,2,7,27,7,1,8,M,,2,,,,,,,
,,,,,,,,1,Kevin T,2024-09-24_15h34.08.474,Motor_Task,2023.2.2,MacIntel,58.82352941,15.2475,15.8971,4,1,0.6365,,2,8,28,8,1,9,L,,4,,,,,,,
,,,,,,,,1,Kevin T,2024-09-24_15h34.08.474,Motor_Task,2023.2.2,MacIntel,58.82352941,15.8976,16.5306,1,1,0.62,,2,9,29,9,1,10,I,,1,,,,,,,
,,,,,,,,1,Kevin T,2024-09-24_15h34.08.474,Motor_Task,2023.2.2,MacIntel,58.82352941,16.5311,16.9473,2,1,0.4035,,3,0,30,0,1,1,M,,2,,,,,,,
,,,,,,,,1,Kevin T,2024-09-24_15h34.08.474,Motor_Task,2023.2.2,MacIntel,58.82352941,16.9476,17.3634,3,1,0.4037,,3,1,31,1,1,2,R,,3,,,,,,,
,,,,,,,,1,Kevin T,2024-09-24_15h34.08.474,Motor_Task,2023.2.2,MacIntel,58.82352941,17.3639,17.7139,2,1,0.3376,,3,2,32,2,1,3,M,,2,,,,,,,
,,,,,,,,1,Kevin T,2024-09-24_15h34.08.474,Motor_Task,2023.2.2,MacIntel,58.82352941,17.7143,18.1301,3,1,0.4029,,3,3,33,3,1,4,R,,3,,,,,,,
,,,,,,,,1,Kevin T,2024-09-24_15h34.08.474,Motor_Task,2023.2.2,MacIntel,58.82352941,18.1303,18.5626,1,1,0.432,,3,4,34,4,1,5,I,,1,,,,,,,
,,,,,,,,1,Kevin T,2024-09-24_15h34.08.474,Motor_Task,2023.2.2,MacIntel,58.82352941,18.5629,19.0306,1,1,0.4555,,3,5,35,5,1,6,I,,1,,,,,,,
,,,,,,,,1,Kevin T,2024-09-24_15h34.08.474,Motor_Task,2023.2.2,MacIntel,58.82352941,19.0312,19.5141,3,1,0.4703,,3,6,36,6,1,7,R,,3,,,,,,,
,,,,,,,,1,Kevin T,2024-09-24_15h34.08.474,Motor_Task,2023.2.2,MacIntel,58.82352941,19.5146,19.7802,1,0,0.2648,,3,7,37,7,1,8,M,,2,,,,,,,
,,,,,,,,1,Kevin T,2024-09-24_15h34.08.474,Motor_Task,2023.2.2,MacIntel,58.82352941,19.7804,20.5307,4,1,0.7388,,3,8,38,8,1,9,L,,4,,,,,,,
,,,,,,,,1,Kevin T,2024-09-24_15h34.08.474,Motor_Task,2023.2.2,MacIntel,58.82352941,20.531,20.9807,1,1,0.4371,,3,9,39,9,1,10,I,,1,,,,,,,
,,,,,,,,1,Kevin T,2024-09-24_15h34.08.474,Motor_Task,2023.2.2,MacIntel,58.82352941,20.9811,21.4305,2,1,0.4411,,4,0,40,0,1,1,M,,2,,,,,,,
,,,,,,,,1,Kevin T,2024-09-24_15h34.08.474,Motor_Task,2023.2.2,MacIntel,58.82352941,21.431,21.9803,3,1,0.5401,,4,1,41,1,1,2,R,,3,,,,,,,
,,,,,,,,1,Kevin T,2024-09-24_15h34.08.474,Motor_Task,2023.2.2,MacIntel,58.82352941,21.9805,22.4306,2,1,0.4377,,4,2,42,2,1,3,M,,2,,,,,,,
,,,,,,,,1,Kevin T,2024-09-24_15h34.08.474,Motor_Task,2023.2.2,MacIntel,58.82352941,22.4311,22.8474,3,1,0.4035,,4,3,43,3,1,4,R,,3,,,,,,,
,,,,,,,,1,Kevin T,2024-09-24_15h34.08.474,Motor_Task,2023.2.2,MacIntel,58.82352941,22.848,23.3641,1,1,0.504,,4,4,44,4,1,5,I,,1,,,,,,,
,,,,,,,,1,Kevin T,2024-09-24_15h34.08.474,Motor_Task,2023.2.2,MacIntel,58.82352941,23.3645,23.9139,1,1,0.5381,,4,5,45,5,1,6,I,,1,,,,,,,
,,,,,,,,1,Kevin T,2024-09-24_15h34.08.474,Motor_Task,2023.2.2,MacIntel,58.82352941,23.9142,24.4807,3,1,0.554,,4,6,46,6,1,7,R,,3,,,,,,,
,,,,,,,,1,Kevin T,2024-09-24_15h34.08.474,Motor_Task,2023.2.2,MacIntel,58.82352941,24.4811,25.1308,2,1,0.6361,,4,7,47,7,1,8,M,,2,,,,,,,
,,,,,,,,1,Kevin T,2024-09-24_15h34.08.474,Motor_Task,2023.2.2,MacIntel,58.82352941,25.1312,25.6639,4,1,0.5322,,4,8,48,8,1,9,L,,4,,,,,,,
,,,,,,,,1,Kevin T,2024-09-24_15h34.08.474,Motor_Task,2023.2.2,MacIntel,58.82352941,25.6643,26.1143,1,1,0.4377,,4,9,49,9,1,10,I,,1,,,,,,,
,,,,,,,,1,Kevin T,2024-09-24_15h34.08.474,Motor_Task,2023.2.2,MacIntel,58.82352941,26.115,26.5475,2,1,0.4213,,5,0,50,0,1,1,M,,2,,,,,,,
,,,,,,,,1,Kevin T,2024-09-24_15h34.08.474,Motor_Task,2023.2.2,MacIntel,58.82352941,26.5481,26.8809,3,1,0.3201,,5,1,51,1,1,2,R,,3,,,,,,,
,,,,,,,,1,Kevin T,2024-09-24_15h34.08.474,Motor_Task,2023.2.2,MacIntel,58.82352941,26.8813,27.3308,2,1,0.4379,,5,2,52,2,1,3,M,,2,,,,,,,
,,,,,,,,1,Kevin T,2024-09-24_15h34.08.474,Motor_Task,2023.2.2,MacIntel,58.82352941,27.3311,27.7976,3,1,0.4573,,5,3,53,3,1,4,R,,3,,,,,,,
,,,,,,,,1,Kevin T,2024-09-24_15h34.08.474,Motor_Task,2023.2.2,MacIntel,58.82352941,27.7984,28.3808,1,1,0.5708,,5,4,54,4,1,5,I,,1,,,,,,,
,,,,,,,,1,Kevin T,2024-09-24_15h34.08.474,Motor_Task,2023.2.2,MacIntel,58.82352941,28.3812,28.8805,1,1,0.4888,,5,5,55,5,1,6,I,,1,,,,,,,
,,,,,,,,1,Kevin T,2024-09-24_15h34.08.474,Motor_Task,2023.2.2,MacIntel,58.82352941,28.8806,29.4802,4,0,0.5886,,5,6,56,6,1,7,R,,3,,,,,,,
,,,,,,,,1,Kevin T,2024-09-24_15h34.08.474,Motor_Task,2023.2.2,MacIntel,58.82352941,29.4806,30.2138,2,1,0.7199,,5,7,57,7,1,8,M,,2,,,,,,,
,,,,,,,,1,Kevin T,2024-09-24_15h34.08.474,Motor_Task,2023.2.2,MacIntel,58.82352941,30.2141,30.7978,4,1,0.5709,,5,8,58,8,1,9,L,,4,,,,,,,
,,,,,,,,1,Kevin T,2024-09-24_15h34.08.474,Motor_Task,2023.2.2,MacIntel,58.82352941,30.7981,31.3976,1,1,0.599,,5,9,59,9,1,10,I,,1,,,,,,,
,,,,,,,,1,Kevin T,2024-09-24_15h34.08.474,Motor_Task,2023.2.2,MacIntel,58.82352941,31.3979,31.9142,2,1,0.5033,,6,0,60,0,1,1,M,,2,,,,,,,
,,,,,,,,1,Kevin T,2024-09-24_15h34.08.474,Motor_Task,2023.2.2,MacIntel,58.82352941,31.9146,32.3475,3,1,0.4202,,6,1,61,1,1,2,R,,3,,,,,,,
,,,,,,,,1,Kevin T,2024-09-24_15h34.08.474,Motor_Task,2023.2.2,MacIntel,58.82352941,32.348,32.7643,2,1,0.4032,,6,2,62,2,1,3,M,,2,,,,,,,
,,,,,,,,1,Kevin T,2024-09-24_15h34.08.474,Motor_Task,2023.2.2,MacIntel,58.82352941,32.7646,33.1476,3,1,0.3701,,6,3,63,3,1,4,R,,3,,,,,,,
,,,,,,,,1,Kevin T,2024-09-24_15h34.08.474,Motor_Task,2023.2.2,MacIntel,58.82352941,33.148,33.7143,1,1,0.5536,,6,4,64,4,1,5,I,,1,,,,,,,
,,,,,,,,1,Kevin T,2024-09-24_15h34.08.474,Motor_Task,2023.2.2,MacIntel,58.82352941,33.7147,34.2975,1,1,0.5706,,6,5,65,5,1,6,I,,1,,,,,,,
,,,,,,,,1,Kevin T,2024-09-24_15h34.08.474,Motor_Task,2023.2.2,MacIntel,58.82352941,34.2981,34.9143,3,1,0.6036,,6,6,66,6,1,7,R,,3,,,,,,,
,,,,,,,,1,Kevin T,2024-09-24_15h34.08.474,Motor_Task,2023.2.2,MacIntel,58.82352941,34.9146,35.3643,2,1,0.4371,,6,7,67,7,1,8,M,,2,,,,,,,
,,,,,,,,1,Kevin T,2024-09-24_15h34.08.474,Motor_Task,2023.2.2,MacIntel,58.82352941,35.3647,35.7811,3,0,0.4037,,6,8,68,8,1,9,L,,4,,,,,,,
,,,,,,,,1,Kevin T,2024-09-24_15h34.08.474,Motor_Task,2023.2.2,MacIntel,58.82352941,35.7814,36.08,4,0,0.2859,,6,9,69,9,1,10,I,,1,,,,,,,
,,,,,,,,1,Kevin T,2024-09-24_15h34.08.474,Motor_Task,2023.2.2,MacIntel,58.82352941,36.0804,36.7143,2,1,0.6212,,7,0,70,0,1,1,M,,2,,,,,,,
,,,,,,,,1,Kevin T,2024-09-24_15h34.08.474,Motor_Task,2023.2.2,MacIntel,58.82352941,36.7146,37.1643,3,1,0.4371,,7,1,71,1,1,2,R,,3,,,,,,,
,,,,,,,,1,Kevin T,2024-09-24_15h34.08.474,Motor_Task,2023.2.2,MacIntel,58.82352941,37.1648,37.6806,2,1,0.5024,,7,2,72,2,1,3,M,,2,,,,,,,
,,,,,,,,1,Kevin T,2024-09-24_15h34.08.474,Motor_Task,2023.2.2,MacIntel,58.82352941,37.6809,38.114,3,1,0.4218,,7,3,73,3,1,4,R,,3,,,,,,,
,,,,,,,,1,Kevin T,2024-09-24_15h34.08.474,Motor_Task,2023.2.2,MacIntel,58.82352941,38.1142,38.7307,1,1,0.6038,,7,4,74,4,1,5,I,,1,,,,,,,
,,,,,,,,1,Kevin T,2024-09-24_15h34.08.474,Motor_Task,2023.2.2,MacIntel,58.82352941,38.7309,39.1796,1,1,0.4394,,7,5,75,5,1,6,I,,1,,,,,,,
,,,,,,,,1,Kevin T,2024-09-24_15h34.08.474,Motor_Task,2023.2.2,MacIntel,58.82352941,39.1799,39.8141,3,1,0.6325,,7,6,76,6,1,7,R,,3,,,,,,,
,,,,,,,,1,Kevin T,2024-09-24_15h34.08.474,Motor_Task,2023.2.2,MacIntel,58.82352941,39.8143,40.2312,2,1,0.4082,,7,7,77,7,1,8,M,,2,,,,,,,
,,,,,,,,1,Kevin T,2024-09-24_15h34.08.474,Motor_Task,2023.2.2,MacIntel,58.82352941,40.2317,40.5645,3,0,0.3232,,7,8,78,8,1,9,L,,4,,,,,,,
,,,,,,,,1,Kevin T,2024-09-24_15h34.08.474,Motor_Task,2023.2.2,MacIntel,58.82352941,40.5649,41.1644,1,1,0.5867,,7,9,79,9,1,10,I,,1,,,,,,,
,,,,,,,,1,Kevin T,2024-09-24_15h34.08.474,Motor_Task,2023.2.2,MacIntel,58.82352941,41.1648,41.7145,2,1,0.5376,,8,0,80,0,1,1,M,,2,,,,,,,
,,,,,,,,1,Kevin T,2024-09-24_15h34.08.474,Motor_Task,2023.2.2,MacIntel,58.82352941,41.715,42.2142,3,1,0.4869,,8,1,81,1,1,2,R,,3,,,,,,,
,,,,,,,,1,Kevin T,2024-09-24_15h34.08.474,Motor_Task,2023.2.2,MacIntel,58.82352941,42.2148,42.6812,2,1,0.4539,,8,2,82,2,1,3,M,,2,,,,,,,
,,,,,,,,1,Kevin T,2024-09-24_15h34.08.474,Motor_Task,2023.2.2,MacIntel,58.82352941,42.6817,43.0803,3,1,0.3876,,8,3,83,3,1,4,R,,3,,,,,,,
,,,,,,,,1,Kevin T,2024-09-24_15h34.08.474,Motor_Task,2023.2.2,MacIntel,58.82352941,43.0806,43.5979,1,1,0.5066,,8,4,84,4,1,5,I,,1,,,,,,,
,,,,,,,,1,Kevin T,2024-09-24_15h34.08.474,Motor_Task,2023.2.2,MacIntel,58.82352941,43.5983,44.0647,1,1,0.4549,,8,5,85,5,1,6,I,,1,,,,,,,
,,,,,,,,1,Kevin T,2024-09-24_15h34.08.474,Motor_Task,2023.2.2,MacIntel,58.82352941,44.0651,44.547,3,1,0.4699,,8,6,86,6,1,7,R,,3,,,,,,,
,,,,,,,,1,Kevin T,2024-09-24_15h34.08.474,Motor_Task,2023.2.2,MacIntel,58.82352941,44.5474,44.998,2,1,0.4382,,8,7,87,7,1,8,M,,2,,,,,,,
,,,,,,,,1,Kevin T,2024-09-24_15h34.08.474,Motor_Task,2023.2.2,MacIntel,58.82352941,44.9984,45.3979,3,0,0.3865,,8,8,88,8,1,9,L,,4,,,,,,,
,,,,,,,,1,Kevin T,2024-09-24_15h34.08.474,Motor_Task,2023.2.2,MacIntel,58.82352941,45.3982,45.8981,1,1,0.487,,8,9,89,9,1,10,I,,1,,,,,,,
,,,,,,,,1,Kevin T,2024-09-24_15h34.08.474,Motor_Task,2023.2.2,MacIntel,58.82352941,45.8985,46.498,2,1,0.586,,9,0,90,0,1,1,M,,2,,,,,,,
,,,,,,,,1,Kevin T,2024-09-24_15h34.08.474,Motor_Task,2023.2.2,MacIntel,58.82352941,46.4984,46.9144,3,1,0.4021,,9,1,91,1,1,2,R,,3,,,,,,,
,,,,,,,,1,Kevin T,2024-09-24_15h34.08.474,Motor_Task,2023.2.2,MacIntel,58.82352941,46.9146,47.3477,2,1,0.421,,9,2,92,2,1,3,M,,2,,,,,,,
,,,,,,,,1,Kevin T,2024-09-24_15h34.08.474,Motor_Task,2023.2.2,MacIntel,58.82352941,47.3483,47.7482,3,1,0.3869,,9,3,93,3,1,4,R,,3,,,,,,,
,,,,,,,,1,Kevin T,2024-09-24_15h34.08.474,Motor_Task,2023.2.2,MacIntel,58.82352941,47.7484,48.348,1,1,0.5865,,9,4,94,4,1,5,I,,1,,,,,,,
,,,,,,,,1,Kevin T,2024-09-24_15h34.08.474,Motor_Task,2023.2.2,MacIntel,58.82352941,48.3484,48.8313,1,1,0.4754,,9,5,95,5,1,6,I,,1,,,,,,,
,,,,,,,,1,Kevin T,2024-09-24_15h34.08.474,Motor_Task,2023.2.2,MacIntel,58.82352941,48.8318,49.2314,1,0,0.3871,,9,6,96,6,1,7,R,,3,,,,,,,
,,,,,,,,1,Kevin T,2024-09-24_15h34.08.474,Motor_Task,2023.2.2,MacIntel,58.82352941,49.2318,49.898,1,0,0.6535,,9,7,97,7,1,8,M,,2,,,,,,,
,,,,,,,,1,Kevin T,2024-09-24_15h34.08.474,Motor_Task,2023.2.2,MacIntel,58.82352941,49.8984,50.6313,4,1,0.7202,,9,8,98,8,1,9,L,,4,,,,,,,
,,,,,,,,1,Kevin T,2024-09-24_15h34.08.474,Motor_Task,2023.2.2,MacIntel,58.82352941,50.6318,51.181,1,1,0.5369,,9,9,99,9,1,10,I,,1,,,,,,,
,,,,,,,,1,Kevin T,2024-09-24_15h34.08.474,Motor_Task,2023.2.2,MacIntel,58.82352941,51.1815,51.6315,2,1,0.4409,,10,0,100,0,1,1,M,,2,,,,,,,
,,,,,,,,1,Kevin T,2024-09-24_15h34.08.474,Motor_Task,2023.2.2,MacIntel,58.82352941,51.6318,52.0315,3,1,0.3991,,10,1,101,1,1,2,R,,3,,,,,,,
,,,,,,,,1,Kevin T,2024-09-24_15h34.08.474,Motor_Task,2023.2.2,MacIntel,58.82352941,52.0319,52.5815,2,1,0.5376,,10,2,102,2,1,3,M,,2,,,,,,,
,,,,,,,,1,Kevin T,2024-09-24_15h34.08.474,Motor_Task,2023.2.2,MacIntel,58.82352941,52.582,52.9817,3,1,0.3869,,10,3,103,3,1,4,R,,3,,,,,,,
,,,,,,,,1,Kevin T,2024-09-24_15h34.08.474,Motor_Task,2023.2.2,MacIntel,58.82352941,52.9822,53.548,1,1,0.5568,,10,4,104,4,1,5,I,,1,,,,,,,
,,,,,,,,1,Kevin T,2024-09-24_15h34.08.474,Motor_Task,2023.2.2,MacIntel,58.82352941,53.5484,54.0316,1,1,0.4706,,10,5,105,5,1,6,I,,1,,,,,,,
,,,,,,,,1,Kevin T,2024-09-24_15h34.08.474,Motor_Task,2023.2.2,MacIntel,58.82352941,54.032,54.6487,3,1,0.6163,,10,6,106,6,1,7,R,,3,,,,,,,
,,,,,,,,1,Kevin T,2024-09-24_15h34.08.474,Motor_Task,2023.2.2,MacIntel,58.82352941,54.6491,55.0482,2,1,0.3982,,10,7,107,7,1,8,M,,2,,,,,,,
,,,,,,,,1,Kevin T,2024-09-24_15h34.08.474,Motor_Task,2023.2.2,MacIntel,58.82352941,55.0486,55.6485,4,1,0.5871,,10,8,108,8,1,9,L,,4,,,,,,,
,,,,,,,,1,Kevin T,2024-09-24_15h34.08.474,Motor_Task,2023.2.2,MacIntel,58.82352941,55.6488,56.115,1,1,0.4656,,10,9,109,9,1,10,I,,1,,,,,,,
,,,,,,,,1,Kevin T,2024-09-24_15h34.08.474,Motor_Task,2023.2.2,MacIntel,58.82352941,56.1153,56.5485,2,1,0.4328,,11,0,110,0,1,1,M,,2,,,,,,,
,,,,,,,,1,Kevin T,2024-09-24_15h34.08.474,Motor_Task,2023.2.2,MacIntel,58.82352941,56.5489,56.9316,3,1,0.3705,,11,1,111,1,1,2,R,,3,,,,,,,
,,,,,,,,1,Kevin T,2024-09-24_15h34.08.474,Motor_Task,2023.2.2,MacIntel,58.82352941,56.932,57.3484,2,1,0.4157,,11,2,112,2,1,3,M,,2,,,,,,,
,,,,,,,,1,Kevin T,2024-09-24_15h34.08.474,Motor_Task,2023.2.2,MacIntel,58.82352941,57.3488,57.749,3,1,0.3997,,11,3,113,3,1,4,R,,3,,,,,,,
,,,,,,,,1,Kevin T,2024-09-24_15h34.08.474,Motor_Task,2023.2.2,MacIntel,58.82352941,57.7495,58.2484,1,1,0.486,,11,4,114,4,1,5,I,,1,,,,,,,
,,,,,,,,1,Kevin T,2024-09-24_15h34.08.474,Motor_Task,2023.2.2,MacIntel,58.82352941,58.2489,58.7318,1,1,0.4705,,11,5,115,5,1,6,I,,1,,,,,,,
,,,,,,,,1,Kevin T,2024-09-24_15h34.08.474,Motor_Task,2023.2.2,MacIntel,58.82352941,58.7323,59.2312,4,0,0.4855,,11,6,116,6,1,7,R,,3,,,,,,,
,,,,,,,,1,Kevin T,2024-09-24_15h34.08.474,Motor_Task,2023.2.2,MacIntel,58.82352941,59.2315,59.9973,2,1,0.7533,,11,7,117,7,1,8,M,,2,,,,,,,
,,,,,,,,1,Kevin T,2024-09-24_15h34.08.474,Motor_Task,2023.2.2,MacIntel,58.82352941,59.9978,60.6651,4,1,0.6548,,11,8,118,8,1,9,L,,4,,,,,,,
,,,,,,,,1,Kevin T,2024-09-24_15h34.08.474,Motor_Task,2023.2.2,MacIntel,58.82352941,60.6655,61.1317,1,1,0.456,,11,9,119,9,1,10,I,,1,,,,,,,
,,,,,,,,1,Kevin T,2024-09-24_15h34.08.474,Motor_Task,2023.2.2,MacIntel,58.82352941,61.1321,61.5484,2,1,0.4034,,12,0,120,0,1,1,M,,2,,,,,,,
,,,,,,,,1,Kevin T,2024-09-24_15h34.08.474,Motor_Task,2023.2.2,MacIntel,58.82352941,61.5488,62.0481,3,1,0.4853,,12,1,121,1,1,2,R,,3,,,,,,,
,,,,,,,,1,Kevin T,2024-09-24_15h34.08.474,Motor_Task,2023.2.2,MacIntel,58.82352941,62.0484,62.5308,2,1,0.4707,,12,2,122,2,1,3,M,,2,,,,,,,
,,,,,,,,1,Kevin T,2024-09-24_15h34.08.474,Motor_Task,2023.2.2,MacIntel,58.82352941,62.5312,62.7644,3,1,0.2313,,12,3,123,3,1,4,R,,3,,,,,,,
,,,,,,,,1,Kevin T,2024-09-24_15h34.08.474,Motor_Task,2023.2.2,MacIntel,58.82352941,62.7647,63.3152,1,1,0.5409,,12,4,124,4,1,5,I,,1,,,,,,,
,,,,,,,,1,Kevin T,2024-09-24_15h34.08.474,Motor_Task,2023.2.2,MacIntel,58.82352941,63.3156,63.7985,1,1,0.4701,,12,5,125,5,1,6,I,,1,,,,,,,
,,,,,,,,1,Kevin T,2024-09-24_15h34.08.474,Motor_Task,2023.2.2,MacIntel,58.82352941,63.7989,64.2975,3,1,0.487,,12,6,126,6,1,7,R,,3,,,,,,,
,,,,,,,,1,Kevin T,2024-09-24_15h34.08.474,Motor_Task,2023.2.2,MacIntel,58.82352941,64.2978,64.7486,2,1,0.4387,,12,7,127,7,1,8,M,,2,,,,,,,
,,,,,,,,1,Kevin T,2024-09-24_15h34.08.474,Motor_Task,2023.2.2,MacIntel,58.82352941,64.7491,64.9808,3,0,0.2192,,12,8,128,8,1,9,L,,4,,,,,,,
,,,,,,,,1,Kevin T,2024-09-24_15h34.08.474,Motor_Task,2023.2.2,MacIntel,58.82352941,64.9812,65.5485,1,1,0.5538,,12,9,129,9,1,10,I,,1,,,,,,,
,,,,,,,,1,Kevin T,2024-09-24_15h34.08.474,Motor_Task,2023.2.2,MacIntel,58.82352941,65.549,66.0485,2,1,0.4856,,13,0,130,0,1,1,M,,2,,,,,,,
,,,,,,,,1,Kevin T,2024-09-24_15h34.08.474,Motor_Task,2023.2.2,MacIntel,58.82352941,66.0489,66.5309,3,1,0.4691,,13,1,131,1,1,2,R,,3,,,,,,,
,,,,,,,,1,Kevin T,2024-09-24_15h34.08.474,Motor_Task,2023.2.2,MacIntel,58.82352941,66.5312,66.9653,2,1,0.4217,,13,2,132,2,1,3,M,,2,,,,,,,
,,,,,,,,1,Kevin T,2024-09-24_15h34.08.474,Motor_Task,2023.2.2,MacIntel,58.82352941,66.9657,67.381,3,1,0.407,,13,3,133,3,1,4,R,,3,,,,,,,
,,,,,,,,1,Kevin T,2024-09-24_15h34.08.474,Motor_Task,2023.2.2,MacIntel,58.82352941,67.3815,67.8819,1,1,0.4876,,13,4,134,4,1,5,I,,1,,,,,,,
,,,,,,,,1,Kevin T,2024-09-24_15h34.08.474,Motor_Task,2023.2.2,MacIntel,58.82352941,67.8823,68.3486,1,1,0.4543,,13,5,135,5,1,6,I,,1,,,,,,,
,,,,,,,,1,Kevin T,2024-09-24_15h34.08.474,Motor_Task,2023.2.2,MacIntel,58.82352941,68.3491,68.8487,3,1,0.4869,,13,6,136,6,1,7,R,,3,,,,,,,
,,,,,,,,1,Kevin T,2024-09-24_15h34.08.474,Motor_Task,2023.2.2,MacIntel,58.82352941,68.849,69.3153,2,1,0.4537,,13,7,137,7,1,8,M,,2,,,,,,,
,,,,,,,,1,Kevin T,2024-09-24_15h34.08.474,Motor_Task,2023.2.2,MacIntel,58.82352941,69.3157,69.5653,3,0,0.249,,13,8,138,8,1,9,L,,4,,,,,,,
,,,,,,,,1,Kevin T,2024-09-24_15h34.08.474,Motor_Task,2023.2.2,MacIntel,58.82352941,69.5657,70.1655,1,1,0.5871,,13,9,139,9,1,10,I,,1,,,,,,,
,,,,,,,,1,Kevin T,2024-09-24_15h34.08.474,Motor_Task,2023.2.2,MacIntel,58.82352941,70.1659,70.6488,2,1,0.4701,,14,0,140,0,1,1,M,,2,,,,,,,
,,,,,,,,1,Kevin T,2024-09-24_15h34.08.474,Motor_Task,2023.2.2,MacIntel,58.82352941,70.6491,71.1143,3,1,0.4551,,14,1,141,1,1,2,R,,3,,,,,,,
,,,,,,,,1,Kevin T,2024-09-24_15h34.08.474,Motor_Task,2023.2.2,MacIntel,58.82352941,71.1147,71.4151,2,1,0.3002,,14,2,142,2,1,3,M,,2,,,,,,,
,,,,,,,,1,Kevin T,2024-09-24_15h34.08.474,Motor_Task,2023.2.2,MacIntel,58.82352941,71.4155,71.9317,3,1,0.5102,,14,3,143,3,1,4,R,,3,,,,,,,
,,,,,,,,1,Kevin T,2024-09-24_15h34.08.474,Motor_Task,2023.2.2,MacIntel,58.82352941,71.9321,72.4316,1,1,0.4863,,14,4,144,4,1,5,I,,1,,,,,,,
,,,,,,,,1,Kevin T,2024-09-24_15h34.08.474,Motor_Task,2023.2.2,MacIntel,58.82352941,72.432,72.8653,3,0,0.4207,,14,5,145,5,1,6,I,,1,,,,,,,
,,,,,,,,1,Kevin T,2024-09-24_15h34.08.474,Motor_Task,2023.2.2,MacIntel,58.82352941,72.8657,73.6154,3,1,0.7373,,14,6,146,6,1,7,R,,3,,,,,,,
,,,,,,,,1,Kevin T,2024-09-24_15h34.08.474,Motor_Task,2023.2.2,MacIntel,58.82352941,73.6158,74.2322,2,1,0.6059,,14,7,147,7,1,8,M,,2,,,,,,,
,,,,,,,,1,Kevin T,2024-09-24_15h34.08.474,Motor_Task,2023.2.2,MacIntel,58.82352941,74.2326,74.7655,4,1,0.5231,,14,8,148,8,1,9,L,,4,,,,,,,
,,,,,,,,1,Kevin T,2024-09-24_15h34.08.474,Motor_Task,2023.2.2,MacIntel,58.82352941,74.7659,75.2156,1,1,0.4377,,14,9,149,9,1,10,I,,1,,,,,,,
,,,,,,,,1,Kevin T,2024-09-24_15h34.08.474,Motor_Task,2023.2.2,MacIntel,58.82352941,75.216,75.6815,2,1,0.4536,,15,0,150,0,1,1,M,,2,,,,,,,
,,,,,,,,1,Kevin T,2024-09-24_15h34.08.474,Motor_Task,2023.2.2,MacIntel,58.82352941,75.682,76.149,4,0,0.4548,,15,1,151,1,1,2,R,,3,,,,,,,
,,,,,,,,1,Kevin T,2024-09-24_15h34.08.474,Motor_Task,2023.2.2,MacIntel,58.82352941,76.1494,76.8656,2,1,0.7036,,15,2,152,2,1,3,M,,2,,,,,,,
,,,,,,,,1,Kevin T,2024-09-24_15h34.08.474,Motor_Task,2023.2.2,MacIntel,58.82352941,76.866,77.299,3,1,0.4205,,15,3,153,3,1,4,R,,3,,,,,,,
,,,,,,,,1,Kevin T,2024-09-24_15h34.08.474,Motor_Task,2023.2.2,MacIntel,58.82352941,77.2994,77.8646,1,1,0.5527,,15,4,154,4,1,5,I,,1,,,,,,,
,,,,,,,,1,Kevin T,2024-09-24_15h34.08.474,Motor_Task,2023.2.2,MacIntel,58.82352941,77.8649,78.3656,1,1,0.4927,,15,5,155,5,1,6,I,,1,,,,,,,
,,,,,,,,1,Kevin T,2024-09-24_15h34.08.474,Motor_Task,2023.2.2,MacIntel,58.82352941,78.3661,79.0325,3,1,0.6535,,15,6,156,6,1,7,R,,3,,,,,,,
,,,,,,,,1,Kevin T,2024-09-24_15h34.08.474,Motor_Task,2023.2.2,MacIntel,58.82352941,79.0329,79.6323,2,1,0.5887,,15,7,157,7,1,8,M,,2,,,,,,,
,,,,,,,,1,Kevin T,2024-09-24_15h34.08.474,Motor_Task,2023.2.2,MacIntel,58.82352941,79.6328,80.1811,4,1,0.5366,,15,8,158,8,1,9,L,,4,,,,,,,
,,,,,,,,1,Kevin T,2024-09-24_15h34.08.474,Motor_Task,2023.2.2,MacIntel,58.82352941,80.1813,80.649,1,1,0.4551,,15,9,159,9,1,10,I,,1,,,,,,,
,,,,,,,,1,Kevin T,2024-09-24_15h34.08.474,Motor_Task,2023.2.2,MacIntel,58.82352941,80.6494,81.0992,2,1,0.4414,,16,0,160,0,1,1,M,,2,,,,,,,
,,,,,,,,1,Kevin T,2024-09-24_15h34.08.474,Motor_Task,2023.2.2,MacIntel,58.82352941,81.0997,81.4823,3,1,0.3721,,16,1,161,1,1,2,R,,3,,,,,,,
,,,,,,,,1,Kevin T,2024-09-24_15h34.08.474,Motor_Task,2023.2.2,MacIntel,58.82352941,81.4828,81.9156,2,1,0.4198,,16,2,162,2,1,3,M,,2,,,,,,,
,,,,,,,,1,Kevin T,2024-09-24_15h34.08.474,Motor_Task,2023.2.2,MacIntel,58.82352941,81.916,82.4824,3,1,0.5536,,16,3,163,3,1,4,R,,3,,,,,,,
,,,,,,,,1,Kevin T,2024-09-24_15h34.08.474,Motor_Task,2023.2.2,MacIntel,58.82352941,82.4828,82.9648,1,1,0.4702,,16,4,164,4,1,5,I,,1,,,,,,,
,,,,,,,,1,Kevin T,2024-09-24_15h34.08.474,Motor_Task,2023.2.2,MacIntel,58.82352941,82.9651,83.4491,1,1,0.4737,,16,5,165,5,1,6,I,,1,,,,,,,
,,,,,,,,1,Kevin T,2024-09-24_15h34.08.474,Motor_Task,2023.2.2,MacIntel,58.82352941,83.4495,83.9326,3,1,0.4736,,16,6,166,6,1,7,R,,3,,,,,,,
,,,,,,,,1,Kevin T,2024-09-24_15h34.08.474,Motor_Task,2023.2.2,MacIntel,58.82352941,83.9328,84.3482,2,1,0.4041,,16,7,167,7,1,8,M,,2,,,,,,,
,,,,,,,,1,Kevin T,2024-09-24_15h34.08.474,Motor_Task,2023.2.2,MacIntel,58.82352941,84.3487,84.999,4,1,0.6371,,16,8,168,8,1,9,L,,4,,,,,,,
,,,,,,,,1,Kevin T,2024-09-24_15h34.08.474,Motor_Task,2023.2.2,MacIntel,58.82352941,84.9992,85.4992,1,1,0.488,,16,9,169,9,1,10,I,,1,,,,,,,
,,,,,,,,1,Kevin T,2024-09-24_15h34.08.474,Motor_Task,2023.2.2,MacIntel,58.82352941,85.4996,85.9491,2,1,0.4386,,17,0,170,0,1,1,M,,2,,,,,,,
,,,,,,,,1,Kevin T,2024-09-24_15h34.08.474,Motor_Task,2023.2.2,MacIntel,58.82352941,85.9497,86.3493,3,1,0.3879,,17,1,171,1,1,2,R,,3,,,,,,,
,,,,,,,,1,Kevin T,2024-09-24_15h34.08.474,Motor_Task,2023.2.2,MacIntel,58.82352941,86.3496,86.7824,2,1,0.432,,17,2,172,2,1,3,M,,2,,,,,,,
,,,,,,,,1,Kevin T,2024-09-24_15h34.08.474,Motor_Task,2023.2.2,MacIntel,58.82352941,86.7827,87.2659,3,1,0.4695,,17,3,173,3,1,4,R,,3,,,,,,,
,,,,,,,,1,Kevin T,2024-09-24_15h34.08.474,Motor_Task,2023.2.2,MacIntel,58.82352941,87.2664,87.8154,1,1,0.5377,,17,4,174,4,1,5,I,,1,,,,,,,
,,,,,,,,1,Kevin T,2024-09-24_15h34.08.474,Motor_Task,2023.2.2,MacIntel,58.82352941,87.8158,88.3151,1,1,0.4884,,17,5,175,5,1,6,I,,1,,,,,,,
,,,,,,,,1,Kevin T,2024-09-24_15h34.08.474,Motor_Task,2023.2.2,MacIntel,58.82352941,88.3155,88.7655,3,1,0.4495,,17,6,176,6,1,7,R,,3,,,,,,,
,,,,,,,,1,Kevin T,2024-09-24_15h34.08.474,Motor_Task,2023.2.2,MacIntel,58.82352941,88.7658,89.2326,2,1,0.458,,17,7,177,7,1,8,M,,2,,,,,,,
,,,,,,,,1,Kevin T,2024-09-24_15h34.08.474,Motor_Task,2023.2.2,MacIntel,58.82352941,89.2329,89.8827,4,1,0.6364,,17,8,178,8,1,9,L,,4,,,,,,,
,,,,,,,,1,Kevin T,2024-09-24_15h34.08.474,Motor_Task,2023.2.2,MacIntel,58.82352941,89.8829,90.4651,1,1,0.57,,17,9,179,9,1,10,I,,1,,,,,,,
,,,,,,,,1,Kevin T,2024-09-24_15h34.08.474,Motor_Task,2023.2.2,MacIntel,58.82352941,90.4655,90.9483,2,1,0.4817,,18,0,180,0,1,1,M,,2,,,,,,,
,,,,,,,,1,Kevin T,2024-09-24_15h34.08.474,Motor_Task,2023.2.2,MacIntel,58.82352941,90.9487,91.3319,3,1,0.3705,,18,1,181,1,1,2,R,,3,,,,,,,
,,,,,,,,1,Kevin T,2024-09-24_15h34.08.474,Motor_Task,2023.2.2,MacIntel,58.82352941,91.3322,91.7824,2,1,0.4384,,18,2,182,2,1,3,M,,2,,,,,,,
,,,,,,,,1,Kevin T,2024-09-24_15h34.08.474,Motor_Task,2023.2.2,MacIntel,58.82352941,91.7828,92.1994,3,1,0.404,,18,3,183,3,1,4,R,,3,,,,,,,
,,,,,,,,1,Kevin T,2024-09-24_15h34.08.474,Motor_Task,2023.2.2,MacIntel,58.82352941,92.1998,92.7831,1,1,0.5828,,18,4,184,4,1,5,I,,1,,,,,,,
,,,,,,,,1,Kevin T,2024-09-24_15h34.08.474,Motor_Task,2023.2.2,MacIntel,58.82352941,92.7835,93.2661,1,1,0.4696,,18,5,185,5,1,6,I,,1,,,,,,,
,,,,,,,,1,Kevin T,2024-09-24_15h34.08.474,Motor_Task,2023.2.2,MacIntel,58.82352941,93.2666,93.7985,3,1,0.5244,,18,6,186,6,1,7,R,,3,,,,,,,
,,,,,,,,1,Kevin T,2024-09-24_15h34.08.474,Motor_Task,2023.2.2,MacIntel,58.82352941,93.7988,94.1994,2,1,0.3889,,18,7,187,7,1,8,M,,2,,,,,,,
,,,,,,,,1,Kevin T,2024-09-24_15h34.08.474,Motor_Task,2023.2.2,MacIntel,58.82352941,94.1998,94.4994,3,0,0.2874,,18,8,188,8,1,9,L,,4,,,,,,,
,,,,,,,,1,Kevin T,2024-09-24_15h34.08.474,Motor_Task,2023.2.2,MacIntel,58.82352941,94.4998,95.0158,1,1,0.5019,,18,9,189,9,1,10,I,,1,,,,,,,
,,,,,,,,1,Kevin T,2024-09-24_15h34.08.474,Motor_Task,2023.2.2,MacIntel,58.82352941,95.016,95.5495,3,0,0.5202,,19,0,190,0,1,1,M,,2,,,,,,,
,,,,,,,,1,Kevin T,2024-09-24_15h34.08.474,Motor_Task,2023.2.2,MacIntel,58.82352941,95.5498,95.6829,2,0,0.1191,,19,1,191,1,1,2,R,,3,,,,,,,
,,,,,,,,1,Kevin T,2024-09-24_15h34.08.474,Motor_Task,2023.2.2,MacIntel,58.82352941,95.6832,96.2328,2,1,0.5419,,19,2,192,2,1,3,M,,2,,,,,,,
,,,,,,,,1,Kevin T,2024-09-24_15h34.08.474,Motor_Task,2023.2.2,MacIntel,58.82352941,96.2332,96.7492,3,1,0.5024,,19,3,193,3,1,4,R,,3,,,,,,,
,,,,,,,,1,Kevin T,2024-09-24_15h34.08.474,Motor_Task,2023.2.2,MacIntel,58.82352941,96.7495,97.1327,2,0,0.3738,,19,4,194,4,1,5,I,,1,,,,,,,
,,,,,,,,1,Kevin T,2024-09-24_15h34.08.474,Motor_Task,2023.2.2,MacIntel,58.82352941,97.1331,97.7492,1,1,0.602,,19,5,195,5,1,6,I,,1,,,,,,,
,,,,,,,,1,Kevin T,2024-09-24_15h34.08.474,Motor_Task,2023.2.2,MacIntel,58.82352941,97.7494,98.365,3,1,0.6015,,19,6,196,6,1,7,R,,3,,,,,,,
,,,,,,,,1,Kevin T,2024-09-24_15h34.08.474,Motor_Task,2023.2.2,MacIntel,58.82352941,98.3651,98.8492,2,1,0.4732,,19,7,197,7,1,8,M,,2,,,,,,,
,,,,,,,,1,Kevin T,2024-09-24_15h34.08.474,Motor_Task,2023.2.2,MacIntel,58.82352941,98.8493,99.2159,3,0,0.3652,,19,8,198,8,1,9,L,,4,,,,,,,
,,,,,,,,1,Kevin T,2024-09-24_15h34.08.474,Motor_Task,2023.2.2,MacIntel,58.82352941,99.216,99.715,1,1,0.4851,,19,9,199,9,1,10,I,,1,,,,,,,
,,,,,,,,1,Kevin T,2024-09-24_15h34.08.474,Motor_Task,2023.2.2,MacIntel,58.82352941,99.7209,100.5163,4,1,0.7826,,,,,,,9,L,,4,0,0,0,8,1,,
,,,,,,,,1,Kevin T,2024-09-24_15h34.08.474,Motor_Task,2023.2.2,MacIntel,58.82352941,100.517,101.0164,1,1,0.4862,,,,,,,6,I,,1,0,1,1,5,1,,
,,,,,,,,1,Kevin T,2024-09-24_15h34.08.474,Motor_Task,2023.2.2,MacIntel,58.82352941,101.0168,101.6164,3,1,0.5868,,,,,,,4,R,,3,0,2,2,3,1,,
,,,,,,,,1,Kevin T,2024-09-24_15h34.08.474,Motor_Task,2023.2.2,MacIntel,58.82352941,101.6168,102.2489,1,1,0.6238,,,,,,,10,I,,1,0,3,3,9,1,,
,,,,,,,,1,Kevin T,2024-09-24_15h34.08.474,Motor_Task,2023.2.2,MacIntel,58.82352941,102.2494,102.8161,2,1,0.565,,,,,,,1,M,,2,0,4,4,0,1,,
,,,,,,,,1,Kevin T,2024-09-24_15h34.08.474,Motor_Task,2023.2.2,MacIntel,58.82352941,102.8163,103.3665,2,1,0.5373,,,,,,,8,M,,2,0,5,5,7,1,,
,,,,,,,,1,Kevin T,2024-09-24_15h34.08.474,Motor_Task,2023.2.2,MacIntel,58.82352941,103.3669,103.8988,3,1,0.5196,,,,,,,2,R,,3,0,6,6,1,1,,
,,,,,,,,1,Kevin T,2024-09-24_15h34.08.474,Motor_Task,2023.2.2,MacIntel,58.82352941,103.8991,104.1997,2,0,0.2884,,,,,,,7,R,,3,0,7,7,6,1,,
,,,,,,,,1,Kevin T,2024-09-24_15h34.08.474,Motor_Task,2023.2.2,MacIntel,58.82352941,104.2001,104.633,3,0,0.4323,,,,,,,3,M,,2,0,8,8,2,1,,
,,,,,,,,1,Kevin T,2024-09-24_15h34.08.474,Motor_Task,2023.2.2,MacIntel,58.82352941,104.6333,104.8497,2,0,0.2051,,,,,,,5,I,,1,0,9,9,4,1,,
,,,,,,,,1,Kevin T,2024-09-24_15h34.08.474,Motor_Task,2023.2.2,MacIntel,58.82352941,104.85,105.4665,2,1,0.6039,,,,,,,8,M,,2,1,0,10,7,1,,
,,,,,,,,1,Kevin T,2024-09-24_15h34.08.474,Motor_Task,2023.2.2,MacIntel,58.82352941,105.467,105.9655,2,1,0.4866,,,,,,,1,M,,2,1,1,11,0,1,,
,,,,,,,,1,Kevin T,2024-09-24_15h34.08.474,Motor_Task,2023.2.2,MacIntel,58.82352941,105.9658,106.4156,2,1,0.4382,,,,,,,3,M,,2,1,2,12,2,1,,
,,,,,,,,1,Kevin T,2024-09-24_15h34.08.474,Motor_Task,2023.2.2,MacIntel,58.82352941,106.4159,106.9997,2,0,0.5712,,,,,,,2,R,,3,1,3,13,1,1,,
,,,,,,,,1,Kevin T,2024-09-24_15h34.08.474,Motor_Task,2023.2.2,MacIntel,58.82352941,107.0002,107.0665,3,0,0.065,,,,,,,9,L,,4,1,4,14,8,1,,
,,,,,,,,1,Kevin T,2024-09-24_15h34.08.474,Motor_Task,2023.2.2,MacIntel,58.82352941,107.067,107.6335,1,1,0.566,,,,,,,5,I,,1,1,5,15,4,1,,
,,,,,,,,1,Kevin T,2024-09-24_15h34.08.474,Motor_Task,2023.2.2,MacIntel,58.82352941,107.6338,108.0998,3,1,0.454,,,,,,,4,R,,3,1,6,16,3,1,,
,,,,,,,,1,Kevin T,2024-09-24_15h34.08.474,Motor_Task,2023.2.2,MacIntel,58.82352941,108.1003,108.7333,1,1,0.624,,,,,,,10,I,,1,1,7,17,9,1,,
,,,,,,,,1,Kevin T,2024-09-24_15h34.08.474,Motor_Task,2023.2.2,MacIntel,58.82352941,108.7336,109.2324,1,1,0.4871,,,,,,,6,I,,1,1,8,18,5,1,,
,,,,,,,,1,Kevin T,2024-09-24_15h34.08.474,Motor_Task,2023.2.2,MacIntel,58.82352941,109.2328,109.7,3,1,0.4544,,,,,,,7,R,,3,1,9,19,6,1,,
,,,,,,,,1,Kevin T,2024-09-24_15h34.08.474,Motor_Task,2023.2.2,MacIntel,58.82352941,109.7004,110.1832,1,1,0.4724,,,,,,,5,I,,1,2,0,20,4,1,,
,,,,,,,,1,Kevin T,2024-09-24_15h34.08.474,Motor_Task,2023.2.2,MacIntel,58.82352941,110.1836,110.7499,2,1,0.5581,,,,,,,8,M,,2,2,1,21,7,1,,
,,,,,,,,1,Kevin T,2024-09-24_15h34.08.474,Motor_Task,2023.2.2,MacIntel,58.82352941,110.7502,111.6331,1,1,0.8728,,,,,,,6,I,,1,2,2,22,5,1,,
,,,,,,,,1,Kevin T,2024-09-24_15h34.08.474,Motor_Task,2023.2.2,MacIntel,58.82352941,111.6336,112.1658,1,0,0.5222,,,,,,,3,M,,2,2,3,23,2,1,,
,,,,,,,,1,Kevin T,2024-09-24_15h34.08.474,Motor_Task,2023.2.2,MacIntel,58.82352941,112.1662,112.8661,3,1,0.6883,,,,,,,7,R,,3,2,4,24,6,1,,
,,,,,,,,1,Kevin T,2024-09-24_15h34.08.474,Motor_Task,2023.2.2,MacIntel,58.82352941,112.8665,113.5,3,1,0.6217,,,,,,,4,R,,3,2,5,25,3,1,,
,,,,,,,,1,Kevin T,2024-09-24_15h34.08.474,Motor_Task,2023.2.2,MacIntel,58.82352941,113.5004,114.1825,4,1,0.6707,,,,,,,9,L,,4,2,6,26,8,1,,
,,,,,,,,1,Kevin T,2024-09-24_15h34.08.474,Motor_Task,2023.2.2,MacIntel,58.82352941,114.1829,114.8167,3,1,0.6207,,,,,,,2,R,,3,2,7,27,1,1,,
,,,,,,,,1,Kevin T,2024-09-24_15h34.08.474,Motor_Task,2023.2.2,MacIntel,58.82352941,114.8171,115.2499,2,1,0.4315,,,,,,,1,M,,2,2,8,28,0,1,,
,,,,,,,,1,Kevin T,2024-09-24_15h34.08.474,Motor_Task,2023.2.2,MacIntel,58.82352941,115.2501,115.7502,1,1,0.4872,,,,,,,10,I,,1,2,9,29,9,1,,
,,,,,,,,1,Kevin T,2024-09-24_15h34.08.474,Motor_Task,2023.2.2,MacIntel,58.82352941,115.7506,116.2168,3,0,0.4528,,,,,,,1,M,,2,3,0,30,0,1,,
,,,,,,,,1,Kevin T,2024-09-24_15h34.08.474,Motor_Task,2023.2.2,MacIntel,58.82352941,116.2173,116.3334,2,0,0.1068,,,,,,,2,R,,3,3,1,31,1,1,,
,,,,,,,,1,Kevin T,2024-09-24_15h34.08.474,Motor_Task,2023.2.2,MacIntel,58.82352941,116.334,116.916,1,1,0.57,,,,,,,10,I,,1,3,2,32,9,1,,
,,,,,,,,1,Kevin T,2024-09-24_15h34.08.474,Motor_Task,2023.2.2,MacIntel,58.82352941,116.9164,117.4502,4,1,0.5237,,,,,,,9,L,,4,3,3,33,8,1,,
,,,,,,,,1,Kevin T,2024-09-24_15h34.08.474,Motor_Task,2023.2.2,MacIntel,58.82352941,117.4507,117.9836,3,1,0.5246,,,,,,,7,R,,3,3,4,34,6,1,,
,,,,,,,,1,Kevin T,2024-09-24_15h34.08.474,Motor_Task,2023.2.2,MacIntel,58.82352941,117.984,118.5001,1,1,0.5039,,,,,,,6,I,,1,3,5,35,5,1,,
,,,,,,,,1,Kevin T,2024-09-24_15h34.08.474,Motor_Task,2023.2.2,MacIntel,58.82352941,118.5006,118.9502,2,1,0.437,,,,,,,8,M,,2,3,6,36,7,1,,
,,,,,,,,1,Kevin T,2024-09-24_15h34.08.474,Motor_Task,2023.2.2,MacIntel,58.82352941,118.9507,119.2336,3,1,0.2714,,,,,,,4,R,,3,3,7,37,3,1,,
,,,,,,,,1,Kevin T,2024-09-24_15h34.08.474,Motor_Task,2023.2.2,MacIntel,58.82352941,119.234,119.5827,2,1,0.338,,,,,,,3,M,,2,3,8,38,2,1,,
,,,,,,,,1,Kevin T,2024-09-24_15h34.08.474,Motor_Task,2023.2.2,MacIntel,58.82352941,119.5831,119.8667,3,0,0.2797,,,,,,,5,I,,1,3,9,39,4,1,,
,,,,,,,,1,Kevin T,2024-09-24_15h34.08.474,Motor_Task,2023.2.2,MacIntel,58.82352941,119.867,120.15,1,0,0.2798,,,,,,,8,M,,2,4,0,40,7,1,,
,,,,,,,,1,Kevin T,2024-09-24_15h34.08.474,Motor_Task,2023.2.2,MacIntel,58.82352941,120.1502,120.7335,2,1,0.575,,,,,,,1,M,,2,4,1,41,0,1,,
,,,,,,,,1,Kevin T,2024-09-24_15h34.08.474,Motor_Task,2023.2.2,MacIntel,58.82352941,120.7339,121.3,3,1,0.5648,,,,,,,7,R,,3,4,2,42,6,1,,
,,,,,,,,1,Kevin T,2024-09-24_15h34.08.474,Motor_Task,2023.2.2,MacIntel,58.82352941,121.3003,121.8169,1,1,0.509,,,,,,,5,I,,1,4,3,43,4,1,,
,,,,,,,,1,Kevin T,2024-09-24_15h34.08.474,Motor_Task,2023.2.2,MacIntel,58.82352941,121.8173,122.2504,1,1,0.4195,,,,,,,10,I,,1,4,4,44,9,1,,
,,,,,,,,1,Kevin T,2024-09-24_15h34.08.474,Motor_Task,2023.2.2,MacIntel,58.82352941,122.2508,122.6837,1,1,0.4234,,,,,,,6,I,,1,4,5,45,5,1,,
,,,,,,,,1,Kevin T,2024-09-24_15h34.08.474,Motor_Task,2023.2.2,MacIntel,58.82352941,122.6841,123.267,3,1,0.5743,,,,,,,4,R,,3,4,6,46,3,1,,
,,,,,,,,1,Kevin T,2024-09-24_15h34.08.474,Motor_Task,2023.2.2,MacIntel,58.82352941,123.2674,123.6837,2,1,0.4079,,,,,,,3,M,,2,4,7,47,2,1,,
,,,,,,,,1,Kevin T,2024-09-24_15h34.08.474,Motor_Task,2023.2.2,MacIntel,58.82352941,123.6841,124.0504,3,1,0.3575,,,,,,,2,R,,3,4,8,48,1,1,,
,,,,,,,,1,Kevin T,2024-09-24_15h34.08.474,Motor_Task,2023.2.2,MacIntel,58.82352941,124.0508,124.4337,2,0,0.3703,,,,,,,9,L,,4,4,9,49,8,1,,
,,,,,,,,1,Kevin T,2024-09-24_15h34.08.474,Motor_Task,2023.2.2,MacIntel,58.82352941,,,,,,,,,,,,,,,,,,,,,124.4343,128.4335