Trigger.started,Trigger.stopped,key_resp_4.keys,key_resp_4.rt,key_resp_4.duration,mouse.x,mouse.y,mouse.leftButton,mouse.midButton,mouse.rightButton,Session,Subject,date,expName,psychopyVersion,OS,frameRate,complex_block.started,complex_block.stopped,key_resp.keys,key_resp.corr,key_resp.rt,key_resp.duration,complex_block_loop.thisRepN,complex_block_loop.thisTrialN,complex_block_loop.thisN,complex_block_loop.thisIndex,complex_block_loop.ran,trial,finger,markerPos,correctResp,new_block_loop.thisRepN,new_block_loop.thisTrialN,new_block_loop.thisN,new_block_loop.thisIndex,new_block_loop.ran,endBuffer.started,endBuffer.stopped
0.0002,55.8869,space,55.8596,,0.352174479,-0.183815104,0,0,0,1,LITB_Example,2024-09-24_15h33.24.296,Motor_Task,2023.2.2,MacIntel,59.88023952,,,,,,,,,,,,,,,,,,,,,,
,,,,,,,,,,1,LITB_Example,2024-09-24_15h33.24.296,Motor_Task,2023.2.2,MacIntel,59.88023952,55.9015,56.6699,2,1,0.7557,,0,0,0,0,1,1,M,,2,,,,,,,
,,,,,,,,,,1,LITB_Example,2024-09-24_15h33.24.296,Motor_Task,2023.2.2,MacIntel,59.88023952,56.6705,57.4354,3,1,0.7551,,0,1,1,1,1,2,R,,3,,,,,,,
,,,,,,,,,,1,LITB_Example,2024-09-24_15h33.24.296,Motor_Task,2023.2.2,MacIntel,59.88023952,57.4358,58.1864,2,1,0.7492,,0,2,2,2,1,3,M,,2,,,,,,,
,,,,,,,,,,1,LITB_Example,2024-09-24_15h33.24.296,Motor_Task,2023.2.2,MacIntel,59.88023952,58.1868,58.8364,3,1,0.6378,,0,3,3,3,1,4,R,,3,,,,,,,
,,,,,,,,,,1,LITB_Example,2024-09-24_15h33.24.296,Motor_Task,2023.2.2,MacIntel,59.88023952,58.8367,59.5031,1,1,0.6542,,0,4,4,4,1,5,I,,1,,,,,,,
,,,,,,,,,,1,LITB_Example,2024-09-24_15h33.24.296,Motor_Task,2023.2.2,MacIntel,59.88023952,59.5036,60.1032,1,1,0.5869,,0,5,5,5,1,6,I,,1,,,,,,,
,,,,,,,,,,1,LITB_Example,2024-09-24_15h33.24.296,Motor_Task,2023.2.2,MacIntel,59.88023952,60.1035,61.0517,3,1,0.9443,,0,6,6,6,1,7,R,,3,,,,,,,
,,,,,,,,,,1,LITB_Example,2024-09-24_15h33.24.296,Motor_Task,2023.2.2,MacIntel,59.88023952,61.0518,61.703,2,1,0.6379,,0,7,7,7,1,8,M,,2,,,,,,,
,,,,,,,,,,1,LITB_Example,2024-09-24_15h33.24.296,Motor_Task,2023.2.2,MacIntel,59.88023952,61.7033,62.3698,4,1,0.6529,,0,8,8,8,1,9,L,,4,,,,,,,
,,,,,,,,,,1,LITB_Example,2024-09-24_15h33.24.296,Motor_Task,2023.2.2,MacIntel,59.88023952,62.3701,63.0854,1,1,0.7078,,0,9,9,9,1,10,I,,1,,,,,,,
,,,,,,,,,,1,LITB_Example,2024-09-24_15h33.24.296,Motor_Task,2023.2.2,MacIntel,59.88023952,63.0857,63.8031,2,1,0.7039,,1,0,10,0,1,1,M,,2,,,,,,,
,,,,,,,,,,1,LITB_Example,2024-09-24_15h33.24.296,Motor_Task,2023.2.2,MacIntel,59.88023952,63.8035,65.1355,3,1,1.3191,,1,1,11,1,1,2,R,,3,,,,,,,
,,,,,,,,,,1,LITB_Example,2024-09-24_15h33.24.296,Motor_Task,2023.2.2,MacIntel,59.88023952,65.1358,66.3699,2,1,1.2209,,1,2,12,2,1,3,M,,2,,,,,,,
,,,,,,,,,,1,LITB_Example,2024-09-24_15h33.24.296,Motor_Task,2023.2.2,MacIntel,59.88023952,66.3703,67.0856,3,1,0.7028,,1,3,13,3,1,4,R,,3,,,,,,,
,,,,,,,,,,1,LITB_Example,2024-09-24_15h33.24.296,Motor_Task,2023.2.2,MacIntel,59.88023952,67.0859,67.6536,1,1,0.5674,,1,4,14,4,1,5,I,,1,,,,,,,
,,,,,,,,,,1,LITB_Example,2024-09-24_15h33.24.296,Motor_Task,2023.2.2,MacIntel,59.88023952,67.654,68.2866,1,1,0.6241,,1,5,15,5,1,6,I,,1,,,,,,,
,,,,,,,,,,1,LITB_Example,2024-09-24_15h33.24.296,Motor_Task,2023.2.2,MacIntel,59.88023952,68.2869,69.0697,3,1,0.77,,1,6,16,6,1,7,R,,3,,,,,,,
,,,,,,,,,,1,LITB_Example,2024-09-24_15h33.24.296,Motor_Task,2023.2.2,MacIntel,59.88023952,69.0699,69.7365,2,1,0.6662,,1,7,17,7,1,8,M,,2,,,,,,,
,,,,,,,,,,1,LITB_Example,2024-09-24_15h33.24.296,Motor_Task,2023.2.2,MacIntel,59.88023952,69.7368,70.4365,4,1,0.6993,,1,8,18,8,1,9,L,,4,,,,,,,
,,,,,,,,,,1,LITB_Example,2024-09-24_15h33.24.296,Motor_Task,2023.2.2,MacIntel,59.88023952,70.4368,71.12,1,1,0.6703,,1,9,19,9,1,10,I,,1,,,,,,,
,,,,,,,,,,1,LITB_Example,2024-09-24_15h33.24.296,Motor_Task,2023.2.2,MacIntel,59.88023952,71.1205,71.8867,2,1,0.753,,2,0,20,0,1,1,M,,2,,,,,,,
,,,,,,,,,,1,LITB_Example,2024-09-24_15h33.24.296,Motor_Task,2023.2.2,MacIntel,59.88023952,71.887,72.4525,3,1,0.5523,,2,1,21,1,1,2,R,,3,,,,,,,
,,,,,,,,,,1,LITB_Example,2024-09-24_15h33.24.296,Motor_Task,2023.2.2,MacIntel,59.88023952,72.4529,73.2694,2,1,0.8045,,2,2,22,2,1,3,M,,2,,,,,,,
,,,,,,,,,,1,LITB_Example,2024-09-24_15h33.24.296,Motor_Task,2023.2.2,MacIntel,59.88023952,73.2699,73.8868,3,1,0.6085,,2,3,23,3,1,4,R,,3,,,,,,,
,,,,,,,,,,1,LITB_Example,2024-09-24_15h33.24.296,Motor_Task,2023.2.2,MacIntel,59.88023952,73.8872,74.5357,1,1,0.6355,,2,4,24,4,1,5,I,,1,,,,,,,
,,,,,,,,,,1,LITB_Example,2024-09-24_15h33.24.296,Motor_Task,2023.2.2,MacIntel,59.88023952,74.536,75.2357,1,1,0.6877,,2,5,25,5,1,6,I,,1,,,,,,,
,,,,,,,,,,1,LITB_Example,2024-09-24_15h33.24.296,Motor_Task,2023.2.2,MacIntel,59.88023952,75.2361,76.0024,3,1,0.7543,,2,6,26,6,1,7,R,,3,,,,,,,
,,,,,,,,,,1,LITB_Example,2024-09-24_15h33.24.296,Motor_Task,2023.2.2,MacIntel,59.88023952,76.0026,76.7201,2,1,0.7152,,2,7,27,7,1,8,M,,2,,,,,,,
,,,,,,,,,,1,LITB_Example,2024-09-24_15h33.24.296,Motor_Task,2023.2.2,MacIntel,59.88023952,76.7205,77.4859,4,1,0.7526,,2,8,28,8,1,9,L,,4,,,,,,,
,,,,,,,,,,1,LITB_Example,2024-09-24_15h33.24.296,Motor_Task,2023.2.2,MacIntel,59.88023952,77.4863,78.2201,1,1,0.7319,,2,9,29,9,1,10,I,,1,,,,,,,
,,,,,,,,,,1,LITB_Example,2024-09-24_15h33.24.296,Motor_Task,2023.2.2,MacIntel,59.88023952,78.2204,78.9202,2,1,0.6866,,3,0,30,0,1,1,M,,2,,,,,,,
,,,,,,,,,,1,LITB_Example,2024-09-24_15h33.24.296,Motor_Task,2023.2.2,MacIntel,59.88023952,78.9204,79.4537,3,1,0.5205,,3,1,31,1,1,2,R,,3,,,,,,,
,,,,,,,,,,1,LITB_Example,2024-09-24_15h33.24.296,Motor_Task,2023.2.2,MacIntel,59.88023952,79.4541,80.3359,2,1,0.8694,,3,2,32,2,1,3,M,,2,,,,,,,
,,,,,,,,,,1,LITB_Example,2024-09-24_15h33.24.296,Motor_Task,2023.2.2,MacIntel,59.88023952,80.3363,81.086,3,1,0.7369,,3,3,33,3,1,4,R,,3,,,,,,,
,,,,,,,,,,1,LITB_Example,2024-09-24_15h33.24.296,Motor_Task,2023.2.2,MacIntel,59.88023952,81.0864,81.7691,1,1,0.671,,3,4,34,4,1,5,I,,1,,,,,,,
,,,,,,,,,,1,LITB_Example,2024-09-24_15h33.24.296,Motor_Task,2023.2.2,MacIntel,59.88023952,81.7695,82.3692,1,1,0.5897,,3,5,35,5,1,6,I,,1,,,,,,,
,,,,,,,,,,1,LITB_Example,2024-09-24_15h33.24.296,Motor_Task,2023.2.2,MacIntel,59.88023952,82.3695,83.1203,3,1,0.7376,,3,6,36,6,1,7,R,,3,,,,,,,
,,,,,,,,,,1,LITB_Example,2024-09-24_15h33.24.296,Motor_Task,2023.2.2,MacIntel,59.88023952,83.1206,83.7693,2,1,0.636,,3,7,37,7,1,8,M,,2,,,,,,,
,,,,,,,,,,1,LITB_Example,2024-09-24_15h33.24.296,Motor_Task,2023.2.2,MacIntel,59.88023952,83.7697,84.4704,4,1,0.6926,,3,8,38,8,1,9,L,,4,,,,,,,
,,,,,,,,,,1,LITB_Example,2024-09-24_15h33.24.296,Motor_Task,2023.2.2,MacIntel,59.88023952,84.4708,85.1536,1,1,0.6691,,3,9,39,9,1,10,I,,1,,,,,,,
,,,,,,,,,,1,LITB_Example,2024-09-24_15h33.24.296,Motor_Task,2023.2.2,MacIntel,59.88023952,85.1539,85.7537,2,1,0.5985,,4,0,40,0,1,1,M,,2,,,,,,,
,,,,,,,,,,1,LITB_Example,2024-09-24_15h33.24.296,Motor_Task,2023.2.2,MacIntel,59.88023952,85.7542,86.2527,3,1,0.498,,4,1,41,1,1,2,R,,3,,,,,,,
,,,,,,,,,,1,LITB_Example,2024-09-24_15h33.24.296,Motor_Task,2023.2.2,MacIntel,59.88023952,86.2532,87.187,2,1,0.9213,,4,2,42,2,1,3,M,,2,,,,,,,
,,,,,,,,,,1,LITB_Example,2024-09-24_15h33.24.296,Motor_Task,2023.2.2,MacIntel,59.88023952,87.1874,87.7362,3,1,0.5458,,4,3,43,3,1,4,R,,3,,,,,,,
,,,,,,,,,,1,LITB_Example,2024-09-24_15h33.24.296,Motor_Task,2023.2.2,MacIntel,59.88023952,87.7366,88.387,1,1,0.6369,,4,4,44,4,1,5,I,,1,,,,,,,
,,,,,,,,,,1,LITB_Example,2024-09-24_15h33.24.296,Motor_Task,2023.2.2,MacIntel,59.88023952,88.3875,89.0537,1,1,0.665,,4,5,45,5,1,6,I,,1,,,,,,,
,,,,,,,,,,1,LITB_Example,2024-09-24_15h33.24.296,Motor_Task,2023.2.2,MacIntel,59.88023952,89.054,91.8705,3,1,2.8084,,4,6,46,6,1,7,R,,3,,,,,,,
,,,,,,,,,,1,LITB_Example,2024-09-24_15h33.24.296,Motor_Task,2023.2.2,MacIntel,59.88023952,91.8709,92.7866,2,1,0.9028,,4,7,47,7,1,8,M,,2,,,,,,,
,,,,,,,,,,1,LITB_Example,2024-09-24_15h33.24.296,Motor_Task,2023.2.2,MacIntel,59.88023952,92.7871,93.5203,4,1,0.7309,,4,8,48,8,1,9,L,,4,,,,,,,
,,,,,,,,,,1,LITB_Example,2024-09-24_15h33.24.296,Motor_Task,2023.2.2,MacIntel,59.88023952,93.5206,94.154,1,1,0.6251,,4,9,49,9,1,10,I,,1,,,,,,,
,,,,,,,,,,1,LITB_Example,2024-09-24_15h33.24.296,Motor_Task,2023.2.2,MacIntel,59.88023952,94.1544,94.6873,2,1,0.519,,5,0,50,0,1,1,M,,2,,,,,,,
,,,,,,,,,,1,LITB_Example,2024-09-24_15h33.24.296,Motor_Task,2023.2.2,MacIntel,59.88023952,94.6876,95.1702,3,1,0.4696,,5,1,51,1,1,2,R,,3,,,,,,,
,,,,,,,,,,1,LITB_Example,2024-09-24_15h33.24.296,Motor_Task,2023.2.2,MacIntel,59.88023952,95.1706,95.9196,2,1,0.7371,,5,2,52,2,1,3,M,,2,,,,,,,
,,,,,,,,,,1,LITB_Example,2024-09-24_15h33.24.296,Motor_Task,2023.2.2,MacIntel,59.88023952,95.92,96.5373,3,1,0.6068,,5,3,53,3,1,4,R,,3,,,,,,,
,,,,,,,,,,1,LITB_Example,2024-09-24_15h33.24.296,Motor_Task,2023.2.2,MacIntel,59.88023952,96.5377,97.1695,1,1,0.6187,,5,4,54,4,1,5,I,,1,,,,,,,
,,,,,,,,,,1,LITB_Example,2024-09-24_15h33.24.296,Motor_Task,2023.2.2,MacIntel,59.88023952,97.1699,97.8703,1,1,0.6988,,5,5,55,5,1,6,I,,1,,,,,,,
,,,,,,,,,,1,LITB_Example,2024-09-24_15h33.24.296,Motor_Task,2023.2.2,MacIntel,59.88023952,97.8704,98.6374,3,1,0.7549,,5,6,56,6,1,7,R,,3,,,,,,,
,,,,,,,,,,1,LITB_Example,2024-09-24_15h33.24.296,Motor_Task,2023.2.2,MacIntel,59.88023952,98.6379,99.1707,2,1,0.5314,,5,7,57,7,1,8,M,,2,,,,,,,
,,,,,,,,,,1,LITB_Example,2024-09-24_15h33.24.296,Motor_Task,2023.2.2,MacIntel,59.88023952,99.171,99.7709,4,1,0.5866,,5,8,58,8,1,9,L,,4,,,,,,,
,,,,,,,,,,1,LITB_Example,2024-09-24_15h33.24.296,Motor_Task,2023.2.2,MacIntel,59.88023952,99.7713,100.3374,1,1,0.5531,,5,9,59,9,1,10,I,,1,,,,,,,
,,,,,,,,,,1,LITB_Example,2024-09-24_15h33.24.296,Motor_Task,2023.2.2,MacIntel,59.88023952,100.3377,100.8208,2,1,0.47,,6,0,60,0,1,1,M,,2,,,,,,,
,,,,,,,,,,1,LITB_Example,2024-09-24_15h33.24.296,Motor_Task,2023.2.2,MacIntel,59.88023952,100.8211,101.3033,3,1,0.4691,,6,1,61,1,1,2,R,,3,,,,,,,
,,,,,,,,,,1,LITB_Example,2024-09-24_15h33.24.296,Motor_Task,2023.2.2,MacIntel,59.88023952,101.3036,101.7541,2,1,0.4376,,6,2,62,2,1,3,M,,2,,,,,,,
,,,,,,,,,,1,LITB_Example,2024-09-24_15h33.24.296,Motor_Task,2023.2.2,MacIntel,59.88023952,101.7545,102.5198,3,1,0.7533,,6,3,63,3,1,4,R,,3,,,,,,,
,,,,,,,,,,1,LITB_Example,2024-09-24_15h33.24.296,Motor_Task,2023.2.2,MacIntel,59.88023952,102.5202,103.1207,1,1,0.5871,,6,4,64,4,1,5,I,,1,,,,,,,
,,,,,,,,,,1,LITB_Example,2024-09-24_15h33.24.296,Motor_Task,2023.2.2,MacIntel,59.88023952,103.1212,103.6531,1,1,0.5187,,6,5,65,5,1,6,I,,1,,,,,,,
,,,,,,,,,,1,LITB_Example,2024-09-24_15h33.24.296,Motor_Task,2023.2.2,MacIntel,59.88023952,103.6534,104.8043,3,1,1.1377,,6,6,66,6,1,7,R,,3,,,,,,,
,,,,,,,,,,1,LITB_Example,2024-09-24_15h33.24.296,Motor_Task,2023.2.2,MacIntel,59.88023952,104.8046,105.5541,2,1,0.7489,,6,7,67,7,1,8,M,,2,,,,,,,
,,,,,,,,,,1,LITB_Example,2024-09-24_15h33.24.296,Motor_Task,2023.2.2,MacIntel,59.88023952,105.5544,106.0208,4,1,0.4571,,6,8,68,8,1,9,L,,4,,,,,,,
,,,,,,,,,,1,LITB_Example,2024-09-24_15h33.24.296,Motor_Task,2023.2.2,MacIntel,59.88023952,106.0211,106.6199,1,1,0.5867,,6,9,69,9,1,10,I,,1,,,,,,,
,,,,,,,,,,1,LITB_Example,2024-09-24_15h33.24.296,Motor_Task,2023.2.2,MacIntel,59.88023952,106.6202,107.1209,2,1,0.4927,,7,0,70,0,1,1,M,,2,,,,,,,
,,,,,,,,,,1,LITB_Example,2024-09-24_15h33.24.296,Motor_Task,2023.2.2,MacIntel,59.88023952,107.1212,107.6208,3,1,0.4892,,7,1,71,1,1,2,R,,3,,,,,,,
,,,,,,,,,,1,LITB_Example,2024-09-24_15h33.24.296,Motor_Task,2023.2.2,MacIntel,59.88023952,107.6212,108.3368,2,1,0.7035,,7,2,72,2,1,3,M,,2,,,,,,,
,,,,,,,,,,1,LITB_Example,2024-09-24_15h33.24.296,Motor_Task,2023.2.2,MacIntel,59.88023952,108.3372,108.9041,3,1,0.5645,,7,3,73,3,1,4,R,,3,,,,,,,
,,,,,,,,,,1,LITB_Example,2024-09-24_15h33.24.296,Motor_Task,2023.2.2,MacIntel,59.88023952,108.9044,109.4042,1,1,0.486,,7,4,74,4,1,5,I,,1,,,,,,,
,,,,,,,,,,1,LITB_Example,2024-09-24_15h33.24.296,Motor_Task,2023.2.2,MacIntel,59.88023952,109.4045,110.0866,1,1,0.6753,,7,5,75,5,1,6,I,,1,,,,,,,
,,,,,,,,,,1,LITB_Example,2024-09-24_15h33.24.296,Motor_Task,2023.2.2,MacIntel,59.88023952,110.0869,110.8536,3,1,0.7662,,7,6,76,6,1,7,R,,3,,,,,,,
,,,,,,,,,,1,LITB_Example,2024-09-24_15h33.24.296,Motor_Task,2023.2.2,MacIntel,59.88023952,110.8539,111.4709,2,1,0.604,,7,7,77,7,1,8,M,,2,,,,,,,
,,,,,,,,,,1,LITB_Example,2024-09-24_15h33.24.296,Motor_Task,2023.2.2,MacIntel,59.88023952,111.4712,111.854,4,1,0.3794,,7,8,78,8,1,9,L,,4,,,,,,,
,,,,,,,,,,1,LITB_Example,2024-09-24_15h33.24.296,Motor_Task,2023.2.2,MacIntel,59.88023952,111.8542,112.4536,1,1,0.5871,,7,9,79,9,1,10,I,,1,,,,,,,
,,,,,,,,,,1,LITB_Example,2024-09-24_15h33.24.296,Motor_Task,2023.2.2,MacIntel,59.88023952,112.454,113.6044,2,1,1.1402,,8,0,80,0,1,1,M,,2,,,,,,,
,,,,,,,,,,1,LITB_Example,2024-09-24_15h33.24.296,Motor_Task,2023.2.2,MacIntel,59.88023952,113.6048,114.1041,3,1,0.4864,,8,1,81,1,1,2,R,,3,,,,,,,
,,,,,,,,,,1,LITB_Example,2024-09-24_15h33.24.296,Motor_Task,2023.2.2,MacIntel,59.88023952,114.1045,114.821,2,1,0.7074,,8,2,82,2,1,3,M,,2,,,,,,,
,,,,,,,,,,1,LITB_Example,2024-09-24_15h33.24.296,Motor_Task,2023.2.2,MacIntel,59.88023952,114.8214,115.5878,3,1,0.7576,,8,3,83,3,1,4,R,,3,,,,,,,
,,,,,,,,,,1,LITB_Example,2024-09-24_15h33.24.296,Motor_Task,2023.2.2,MacIntel,59.88023952,115.5881,116.287,1,1,0.6865,,8,4,84,4,1,5,I,,1,,,,,,,
,,,,,,,,,,1,LITB_Example,2024-09-24_15h33.24.296,Motor_Task,2023.2.2,MacIntel,59.88023952,116.2874,116.9701,1,1,0.6715,,8,5,85,5,1,6,I,,1,,,,,,,
,,,,,,,,,,1,LITB_Example,2024-09-24_15h33.24.296,Motor_Task,2023.2.2,MacIntel,59.88023952,116.9706,117.7878,3,1,0.8062,,8,6,86,6,1,7,R,,3,,,,,,,
,,,,,,,,,,1,LITB_Example,2024-09-24_15h33.24.296,Motor_Task,2023.2.2,MacIntel,59.88023952,117.7881,118.3378,2,1,0.5366,,8,7,87,7,1,8,M,,2,,,,,,,
,,,,,,,,,,1,LITB_Example,2024-09-24_15h33.24.296,Motor_Task,2023.2.2,MacIntel,59.88023952,118.3382,118.7375,4,1,0.3925,,8,8,88,8,1,9,L,,4,,,,,,,
,,,,,,,,,,1,LITB_Example,2024-09-24_15h33.24.296,Motor_Task,2023.2.2,MacIntel,59.88023952,118.7378,119.3371,1,1,0.5874,,8,9,89,9,1,10,I,,1,,,,,,,
,,,,,,,,,,1,LITB_Example,2024-09-24_15h33.24.296,Motor_Task,2023.2.2,MacIntel,59.88023952,119.3375,119.9208,2,1,0.5794,,9,0,90,0,1,1,M,,2,,,,,,,
,,,,,,,,,,1,LITB_Example,2024-09-24_15h33.24.296,Motor_Task,2023.2.2,MacIntel,59.88023952,119.9212,120.4046,3,1,0.4727,,9,1,91,1,1,2,R,,3,,,,,,,
,,,,,,,,,,1,LITB_Example,2024-09-24_15h33.24.296,Motor_Task,2023.2.2,MacIntel,59.88023952,120.4049,121.0875,2,1,0.6701,,9,2,92,2,1,3,M,,2,,,,,,,
,,,,,,,,,,1,LITB_Example,2024-09-24_15h33.24.296,Motor_Task,2023.2.2,MacIntel,59.88023952,121.0878,121.4213,3,1,0.3195,,9,3,93,3,1,4,R,,3,,,,,,,
,,,,,,,,,,1,LITB_Example,2024-09-24_15h33.24.296,Motor_Task,2023.2.2,MacIntel,59.88023952,121.4217,121.9713,1,1,0.5366,,9,4,94,4,1,5,I,,1,,,,,,,
,,,,,,,,,,1,LITB_Example,2024-09-24_15h33.24.296,Motor_Task,2023.2.2,MacIntel,59.88023952,121.9716,122.5537,1,1,0.5704,,9,5,95,5,1,6,I,,1,,,,,,,
,,,,,,,,,,1,LITB_Example,2024-09-24_15h33.24.296,Motor_Task,2023.2.2,MacIntel,59.88023952,122.5542,123.1536,3,1,0.5873,,9,6,96,6,1,7,R,,3,,,,,,,
,,,,,,,,,,1,LITB_Example,2024-09-24_15h33.24.296,Motor_Task,2023.2.2,MacIntel,59.88023952,123.154,123.8379,2,1,0.6705,,9,7,97,7,1,8,M,,2,,,,,,,
,,,,,,,,,,1,LITB_Example,2024-09-24_15h33.24.296,Motor_Task,2023.2.2,MacIntel,59.88023952,123.8382,124.2875,4,1,0.4483,,9,8,98,8,1,9,L,,4,,,,,,,
,,,,,,,,,,1,LITB_Example,2024-09-24_15h33.24.296,Motor_Task,2023.2.2,MacIntel,59.88023952,124.2879,124.987,1,1,0.6875,,9,9,99,9,1,10,I,,1,,,,,,,
,,,,,,,,,,1,LITB_Example,2024-09-24_15h33.24.296,Motor_Task,2023.2.2,MacIntel,59.88023952,124.9874,125.6203,2,1,0.6212,,10,0,100,0,1,1,M,,2,,,,,,,
,,,,,,,,,,1,LITB_Example,2024-09-24_15h33.24.296,Motor_Task,2023.2.2,MacIntel,59.88023952,125.6207,125.9213,3,1,0.2874,,10,1,101,1,1,2,R,,3,,,,,,,
,,,,,,,,,,1,LITB_Example,2024-09-24_15h33.24.296,Motor_Task,2023.2.2,MacIntel,59.88023952,125.9217,126.6036,2,1,0.6712,,10,2,102,2,1,3,M,,2,,,,,,,
,,,,,,,,,,1,LITB_Example,2024-09-24_15h33.24.296,Motor_Task,2023.2.2,MacIntel,59.88023952,126.6039,126.8213,3,1,0.2069,,10,3,103,3,1,4,R,,3,,,,,,,
,,,,,,,,,,1,LITB_Example,2024-09-24_15h33.24.296,Motor_Task,2023.2.2,MacIntel,59.88023952,126.8217,127.2043,1,1,0.3823,,10,4,104,4,1,5,I,,1,,,,,,,
,,,,,,,,,,1,LITB_Example,2024-09-24_15h33.24.296,Motor_Task,2023.2.2,MacIntel,59.88023952,127.2044,127.9213,1,1,0.7037,,10,5,105,5,1,6,I,,1,,,,,,,
,,,,,,,,,,1,LITB_Example,2024-09-24_15h33.24.296,Motor_Task,2023.2.2,MacIntel,59.88023952,127.9218,128.5715,3,1,0.6368,,10,6,106,6,1,7,R,,3,,,,,,,
,,,,,,,,,,1,LITB_Example,2024-09-24_15h33.24.296,Motor_Task,2023.2.2,MacIntel,59.88023952,128.5719,128.788,2,1,0.2054,,10,7,107,7,1,8,M,,2,,,,,,,
,,,,,,,,,,1,LITB_Example,2024-09-24_15h33.24.296,Motor_Task,2023.2.2,MacIntel,59.88023952,128.7884,129.0371,1,0,0.2395,,10,8,108,8,1,9,L,,4,,,,,,,
,,,,,,,,,,1,LITB_Example,2024-09-24_15h33.24.296,Motor_Task,2023.2.2,MacIntel,59.88023952,129.0375,130.1548,1,1,1.1045,,10,9,109,9,1,10,I,,1,,,,,,,
,,,,,,,,,,1,LITB_Example,2024-09-24_15h33.24.296,Motor_Task,2023.2.2,MacIntel,59.88023952,130.1553,130.9879,2,1,0.8213,,11,0,110,0,1,1,M,,2,,,,,,,
,,,,,,,,,,1,LITB_Example,2024-09-24_15h33.24.296,Motor_Task,2023.2.2,MacIntel,59.88023952,130.9882,131.5039,3,1,0.5029,,11,1,111,1,1,2,R,,3,,,,,,,
,,,,,,,,,,1,LITB_Example,2024-09-24_15h33.24.296,Motor_Task,2023.2.2,MacIntel,59.88023952,131.5043,131.938,2,1,0.4322,,11,2,112,2,1,3,M,,2,,,,,,,
,,,,,,,,,,1,LITB_Example,2024-09-24_15h33.24.296,Motor_Task,2023.2.2,MacIntel,59.88023952,131.9384,132.1706,3,1,0.2199,,11,3,113,3,1,4,R,,3,,,,,,,
,,,,,,,,,,1,LITB_Example,2024-09-24_15h33.24.296,Motor_Task,2023.2.2,MacIntel,59.88023952,132.171,132.7214,1,1,0.5496,,11,4,114,4,1,5,I,,1,,,,,,,
,,,,,,,,,,1,LITB_Example,2024-09-24_15h33.24.296,Motor_Task,2023.2.2,MacIntel,59.88023952,132.7218,133.2215,1,1,0.4877,,11,5,115,5,1,6,I,,1,,,,,,,
,,,,,,,,,,1,LITB_Example,2024-09-24_15h33.24.296,Motor_Task,2023.2.2,MacIntel,59.88023952,133.2218,133.9049,3,1,0.6822,,11,6,116,6,1,7,R,,3,,,,,,,
,,,,,,,,,,1,LITB_Example,2024-09-24_15h33.24.296,Motor_Task,2023.2.2,MacIntel,59.88023952,133.9052,134.2211,2,1,0.3079,,11,7,117,7,1,8,M,,2,,,,,,,
,,,,,,,,,,1,LITB_Example,2024-09-24_15h33.24.296,Motor_Task,2023.2.2,MacIntel,59.88023952,134.2215,134.6049,4,1,0.3724,,11,8,118,8,1,9,L,,4,,,,,,,
,,,,,,,,,,1,LITB_Example,2024-09-24_15h33.24.296,Motor_Task,2023.2.2,MacIntel,59.88023952,134.6052,135.0548,1,1,0.4364,,11,9,119,9,1,10,I,,1,,,,,,,
,,,,,,,,,,1,LITB_Example,2024-09-24_15h33.24.296,Motor_Task,2023.2.2,MacIntel,59.88023952,135.0553,135.7049,2,1,0.6364,,12,0,120,0,1,1,M,,2,,,,,,,
,,,,,,,,,,1,LITB_Example,2024-09-24_15h33.24.296,Motor_Task,2023.2.2,MacIntel,59.88023952,135.7052,136.0706,3,1,0.3531,,12,1,121,1,1,2,R,,3,,,,,,,
,,,,,,,,,,1,LITB_Example,2024-09-24_15h33.24.296,Motor_Task,2023.2.2,MacIntel,59.88023952,136.071,136.3383,2,1,0.2564,,12,2,122,2,1,3,M,,2,,,,,,,
,,,,,,,,,,1,LITB_Example,2024-09-24_15h33.24.296,Motor_Task,2023.2.2,MacIntel,59.88023952,136.3386,136.7872,3,1,0.4414,,12,3,123,3,1,4,R,,3,,,,,,,
,,,,,,,,,,1,LITB_Example,2024-09-24_15h33.24.296,Motor_Task,2023.2.2,MacIntel,59.88023952,136.7877,137.3542,1,1,0.5562,,12,4,124,4,1,5,I,,1,,,,,,,
,,,,,,,,,,1,LITB_Example,2024-09-24_15h33.24.296,Motor_Task,2023.2.2,MacIntel,59.88023952,137.3546,137.9371,1,1,0.5808,,12,5,125,5,1,6,I,,1,,,,,,,
,,,,,,,,,,1,LITB_Example,2024-09-24_15h33.24.296,Motor_Task,2023.2.2,MacIntel,59.88023952,137.9373,138.6216,3,1,0.673,,12,6,126,6,1,7,R,,3,,,,,,,
,,,,,,,,,,1,LITB_Example,2024-09-24_15h33.24.296,Motor_Task,2023.2.2,MacIntel,59.88023952,138.622,138.8718,2,1,0.2361,,12,7,127,7,1,8,M,,2,,,,,,,
,,,,,,,,,,1,LITB_Example,2024-09-24_15h33.24.296,Motor_Task,2023.2.2,MacIntel,59.88023952,138.8722,139.3044,4,1,0.4227,,12,8,128,8,1,9,L,,4,,,,,,,
,,,,,,,,,,1,LITB_Example,2024-09-24_15h33.24.296,Motor_Task,2023.2.2,MacIntel,59.88023952,139.3048,139.7716,1,1,0.4569,,12,9,129,9,1,10,I,,1,,,,,,,
,,,,,,,,,,1,LITB_Example,2024-09-24_15h33.24.296,Motor_Task,2023.2.2,MacIntel,59.88023952,139.7719,140.305,2,1,0.5203,,13,0,130,0,1,1,M,,2,,,,,,,
,,,,,,,,,,1,LITB_Example,2024-09-24_15h33.24.296,Motor_Task,2023.2.2,MacIntel,59.88023952,140.3053,140.8383,3,1,0.5201,,13,1,131,1,1,2,R,,3,,,,,,,
,,,,,,,,,,1,LITB_Example,2024-09-24_15h33.24.296,Motor_Task,2023.2.2,MacIntel,59.88023952,140.8387,141.8883,2,1,1.0469,,13,2,132,2,1,3,M,,2,,,,,,,
,,,,,,,,,,1,LITB_Example,2024-09-24_15h33.24.296,Motor_Task,2023.2.2,MacIntel,59.88023952,141.8886,142.0551,2,0,0.1573,,13,3,133,3,1,4,R,,3,,,,,,,
,,,,,,,,,,1,LITB_Example,2024-09-24_15h33.24.296,Motor_Task,2023.2.2,MacIntel,59.88023952,142.0555,142.2208,3,0,0.1526,,13,4,134,4,1,5,I,,1,,,,,,,
,,,,,,,,,,1,LITB_Example,2024-09-24_15h33.24.296,Motor_Task,2023.2.2,MacIntel,59.88023952,142.2211,142.9219,1,1,0.6878,,13,5,135,5,1,6,I,,1,,,,,,,
,,,,,,,,,,1,LITB_Example,2024-09-24_15h33.24.296,Motor_Task,2023.2.2,MacIntel,59.88023952,142.9224,143.8049,3,1,0.8815,,13,6,136,6,1,7,R,,3,,,,,,,
,,,,,,,,,,1,LITB_Example,2024-09-24_15h33.24.296,Motor_Task,2023.2.2,MacIntel,59.88023952,143.8053,144.355,2,1,0.548,,13,7,137,7,1,8,M,,2,,,,,,,
,,,,,,,,,,1,LITB_Example,2024-09-24_15h33.24.296,Motor_Task,2023.2.2,MacIntel,59.88023952,144.3552,144.6718,4,1,0.3147,,13,8,138,8,1,9,L,,4,,,,,,,
,,,,,,,,,,1,LITB_Example,2024-09-24_15h33.24.296,Motor_Task,2023.2.2,MacIntel,59.88023952,144.6722,145.1385,1,1,0.4532,,13,9,139,9,1,10,I,,1,,,,,,,
,,,,,,,,,,1,LITB_Example,2024-09-24_15h33.24.296,Motor_Task,2023.2.2,MacIntel,59.88023952,145.1389,145.6545,2,1,0.5042,,14,0,140,0,1,1,M,,2,,,,,,,
,,,,,,,,,,1,LITB_Example,2024-09-24_15h33.24.296,Motor_Task,2023.2.2,MacIntel,59.88023952,145.655,146.1218,3,1,0.4545,,14,1,141,1,1,2,R,,3,,,,,,,
,,,,,,,,,,1,LITB_Example,2024-09-24_15h33.24.296,Motor_Task,2023.2.2,MacIntel,59.88023952,146.1222,146.6886,2,1,0.5531,,14,2,142,2,1,3,M,,2,,,,,,,
,,,,,,,,,,1,LITB_Example,2024-09-24_15h33.24.296,Motor_Task,2023.2.2,MacIntel,59.88023952,146.6891,146.9386,3,1,0.2371,,14,3,143,3,1,4,R,,3,,,,,,,
,,,,,,,,,,1,LITB_Example,2024-09-24_15h33.24.296,Motor_Task,2023.2.2,MacIntel,59.88023952,146.939,147.3552,1,1,0.4032,,14,4,144,4,1,5,I,,1,,,,,,,
,,,,,,,,,,1,LITB_Example,2024-09-24_15h33.24.296,Motor_Task,2023.2.2,MacIntel,59.88023952,147.3556,147.9387,1,1,0.5827,,14,5,145,5,1,6,I,,1,,,,,,,
,,,,,,,,,,1,LITB_Example,2024-09-24_15h33.24.296,Motor_Task,2023.2.2,MacIntel,59.88023952,147.939,148.521,3,1,0.5693,,14,6,146,6,1,7,R,,3,,,,,,,
,,,,,,,,,,1,LITB_Example,2024-09-24_15h33.24.296,Motor_Task,2023.2.2,MacIntel,59.88023952,148.5214,148.9886,2,1,0.456,,14,7,147,7,1,8,M,,2,,,,,,,
,,,,,,,,,,1,LITB_Example,2024-09-24_15h33.24.296,Motor_Task,2023.2.2,MacIntel,59.88023952,148.989,149.5379,3,0,0.5367,,14,8,148,8,1,9,L,,4,,,,,,,
,,,,,,,,,,1,LITB_Example,2024-09-24_15h33.24.296,Motor_Task,2023.2.2,MacIntel,59.88023952,149.5383,150.3554,1,1,0.8127,,14,9,149,9,1,10,I,,1,,,,,,,
,,,,,,,,,,1,LITB_Example,2024-09-24_15h33.24.296,Motor_Task,2023.2.2,MacIntel,59.88023952,150.3558,150.9387,2,1,0.5696,,15,0,150,0,1,1,M,,2,,,,,,,
,,,,,,,,,,1,LITB_Example,2024-09-24_15h33.24.296,Motor_Task,2023.2.2,MacIntel,59.88023952,150.9392,151.4054,3,1,0.452,,15,1,151,1,1,2,R,,3,,,,,,,
,,,,,,,,,,1,LITB_Example,2024-09-24_15h33.24.296,Motor_Task,2023.2.2,MacIntel,59.88023952,151.4057,151.805,1,0,0.3862,,15,2,152,2,1,3,M,,2,,,,,,,
,,,,,,,,,,1,LITB_Example,2024-09-24_15h33.24.296,Motor_Task,2023.2.2,MacIntel,59.88023952,151.8054,152.7383,3,1,0.9238,,15,3,153,3,1,4,R,,3,,,,,,,
,,,,,,,,,,1,LITB_Example,2024-09-24_15h33.24.296,Motor_Task,2023.2.2,MacIntel,59.88023952,152.7387,153.2552,1,1,0.5044,,15,4,154,4,1,5,I,,1,,,,,,,
,,,,,,,,,,1,LITB_Example,2024-09-24_15h33.24.296,Motor_Task,2023.2.2,MacIntel,59.88023952,153.2556,153.8387,1,1,0.5701,,15,5,155,5,1,6,I,,1,,,,,,,
,,,,,,,,,,1,LITB_Example,2024-09-24_15h33.24.296,Motor_Task,2023.2.2,MacIntel,59.88023952,153.839,154.522,3,1,0.6699,,15,6,156,6,1,7,R,,3,,,,,,,
,,,,,,,,,,1,LITB_Example,2024-09-24_15h33.24.296,Motor_Task,2023.2.2,MacIntel,59.88023952,154.5222,154.7046,2,1,0.182,,15,7,157,7,1,8,M,,2,,,,,,,
,,,,,,,,,,1,LITB_Example,2024-09-24_15h33.24.296,Motor_Task,2023.2.2,MacIntel,59.88023952,154.705,155.0389,4,1,0.3252,,15,8,158,8,1,9,L,,4,,,,,,,
,,,,,,,,,,1,LITB_Example,2024-09-24_15h33.24.296,Motor_Task,2023.2.2,MacIntel,59.88023952,155.0393,155.6219,1,1,0.5735,,15,9,159,9,1,10,I,,1,,,,,,,
,,,,,,,,,,1,LITB_Example,2024-09-24_15h33.24.296,Motor_Task,2023.2.2,MacIntel,59.88023952,155.6222,156.2543,2,1,0.6314,,16,0,160,0,1,1,M,,2,,,,,,,
,,,,,,,,,,1,LITB_Example,2024-09-24_15h33.24.296,Motor_Task,2023.2.2,MacIntel,59.88023952,156.2548,156.5711,3,1,0.3081,,16,1,161,1,1,2,R,,3,,,,,,,
,,,,,,,,,,1,LITB_Example,2024-09-24_15h33.24.296,Motor_Task,2023.2.2,MacIntel,59.88023952,156.5715,156.9883,2,1,0.4084,,16,2,162,2,1,3,M,,2,,,,,,,
,,,,,,,,,,1,LITB_Example,2024-09-24_15h33.24.296,Motor_Task,2023.2.2,MacIntel,59.88023952,156.9887,157.2721,3,1,0.2709,,16,3,163,3,1,4,R,,3,,,,,,,
,,,,,,,,,,1,LITB_Example,2024-09-24_15h33.24.296,Motor_Task,2023.2.2,MacIntel,59.88023952,157.2725,157.622,1,1,0.3466,,16,4,164,4,1,5,I,,1,,,,,,,
,,,,,,,,,,1,LITB_Example,2024-09-24_15h33.24.296,Motor_Task,2023.2.2,MacIntel,59.88023952,157.6223,158.021,1,1,0.3856,,16,5,165,5,1,6,I,,1,,,,,,,
,,,,,,,,,,1,LITB_Example,2024-09-24_15h33.24.296,Motor_Task,2023.2.2,MacIntel,59.88023952,158.0214,158.5221,3,1,0.4877,,16,6,166,6,1,7,R,,3,,,,,,,
,,,,,,,,,,1,LITB_Example,2024-09-24_15h33.24.296,Motor_Task,2023.2.2,MacIntel,59.88023952,158.5225,158.9055,2,1,0.3705,,16,7,167,7,1,8,M,,2,,,,,,,
,,,,,,,,,,1,LITB_Example,2024-09-24_15h33.24.296,Motor_Task,2023.2.2,MacIntel,59.88023952,158.9059,159.3722,4,1,0.4523,,16,8,168,8,1,9,L,,4,,,,,,,
,,,,,,,,,,1,LITB_Example,2024-09-24_15h33.24.296,Motor_Task,2023.2.2,MacIntel,59.88023952,159.3725,159.8046,1,1,0.4199,,16,9,169,9,1,10,I,,1,,,,,,,
,,,,,,,,,,1,LITB_Example,2024-09-24_15h33.24.296,Motor_Task,2023.2.2,MacIntel,59.88023952,159.805,160.2716,2,1,0.4553,,17,0,170,0,1,1,M,,2,,,,,,,
,,,,,,,,,,1,LITB_Example,2024-09-24_15h33.24.296,Motor_Task,2023.2.2,MacIntel,59.88023952,160.2721,160.5555,3,1,0.2701,,17,1,171,1,1,2,R,,3,,,,,,,
,,,,,,,,,,1,LITB_Example,2024-09-24_15h33.24.296,Motor_Task,2023.2.2,MacIntel,59.88023952,160.5558,160.8721,2,1,0.3033,,17,2,172,2,1,3,M,,2,,,,,,,
,,,,,,,,,,1,LITB_Example,2024-09-24_15h33.24.296,Motor_Task,2023.2.2,MacIntel,59.88023952,160.8724,161.1389,3,1,0.2548,,17,3,173,3,1,4,R,,3,,,,,,,
,,,,,,,,,,1,LITB_Example,2024-09-24_15h33.24.296,Motor_Task,2023.2.2,MacIntel,59.88023952,161.1392,161.4222,1,1,0.2697,,17,4,174,4,1,5,I,,1,,,,,,,
,,,,,,,,,,1,LITB_Example,2024-09-24_15h33.24.296,Motor_Task,2023.2.2,MacIntel,59.88023952,161.4226,162.1552,1,1,0.7198,,17,5,175,5,1,6,I,,1,,,,,,,
,,,,,,,,,,1,LITB_Example,2024-09-24_15h33.24.296,Motor_Task,2023.2.2,MacIntel,59.88023952,162.1555,162.6055,3,1,0.4405,,17,6,176,6,1,7,R,,3,,,,,,,
,,,,,,,,,,1,LITB_Example,2024-09-24_15h33.24.296,Motor_Task,2023.2.2,MacIntel,59.88023952,162.6059,162.8556,2,1,0.2382,,17,7,177,7,1,8,M,,2,,,,,,,
,,,,,,,,,,1,LITB_Example,2024-09-24_15h33.24.296,Motor_Task,2023.2.2,MacIntel,59.88023952,162.8559,163.0389,1,0,0.17,,17,8,178,8,1,9,L,,4,,,,,,,
,,,,,,,,,,1,LITB_Example,2024-09-24_15h33.24.296,Motor_Task,2023.2.2,MacIntel,59.88023952,163.0393,164.0221,1,1,0.9744,,17,9,179,9,1,10,I,,1,,,,,,,
,,,,,,,,,,1,LITB_Example,2024-09-24_15h33.24.296,Motor_Task,2023.2.2,MacIntel,59.88023952,164.0226,164.805,2,1,0.7692,,18,0,180,0,1,1,M,,2,,,,,,,
,,,,,,,,,,1,LITB_Example,2024-09-24_15h33.24.296,Motor_Task,2023.2.2,MacIntel,59.88023952,164.8054,165.139,3,1,0.3285,,18,1,181,1,1,2,R,,3,,,,,,,
,,,,,,,,,,1,LITB_Example,2024-09-24_15h33.24.296,Motor_Task,2023.2.2,MacIntel,59.88023952,165.1394,165.8222,2,1,0.6739,,18,2,182,2,1,3,M,,2,,,,,,,
,,,,,,,,,,1,LITB_Example,2024-09-24_15h33.24.296,Motor_Task,2023.2.2,MacIntel,59.88023952,165.8226,166.0382,3,1,0.2151,,18,3,183,3,1,4,R,,3,,,,,,,
,,,,,,,,,,1,LITB_Example,2024-09-24_15h33.24.296,Motor_Task,2023.2.2,MacIntel,59.88023952,166.0386,166.4223,1,1,0.3706,,18,4,184,4,1,5,I,,1,,,,,,,
,,,,,,,,,,1,LITB_Example,2024-09-24_15h33.24.296,Motor_Task,2023.2.2,MacIntel,59.88023952,166.4227,166.9881,1,1,0.556,,18,5,185,5,1,6,I,,1,,,,,,,
,,,,,,,,,,1,LITB_Example,2024-09-24_15h33.24.296,Motor_Task,2023.2.2,MacIntel,59.88023952,166.9885,167.5056,3,1,0.516,,18,6,186,6,1,7,R,,3,,,,,,,
,,,,,,,,,,1,LITB_Example,2024-09-24_15h33.24.296,Motor_Task,2023.2.2,MacIntel,59.88023952,167.506,167.6891,2,1,0.1708,,18,7,187,7,1,8,M,,2,,,,,,,
,,,,,,,,,,1,LITB_Example,2024-09-24_15h33.24.296,Motor_Task,2023.2.2,MacIntel,59.88023952,167.6895,168.1389,4,1,0.4488,,18,8,188,8,1,9,L,,4,,,,,,,
,,,,,,,,,,1,LITB_Example,2024-09-24_15h33.24.296,Motor_Task,2023.2.2,MacIntel,59.88023952,168.1392,168.6057,1,1,0.4537,,18,9,189,9,1,10,I,,1,,,,,,,
,,,,,,,,,,1,LITB_Example,2024-09-24_15h33.24.296,Motor_Task,2023.2.2,MacIntel,59.88023952,168.606,169.0887,2,1,0.4718,,19,0,190,0,1,1,M,,2,,,,,,,
,,,,,,,,,,1,LITB_Example,2024-09-24_15h33.24.296,Motor_Task,2023.2.2,MacIntel,59.88023952,169.0889,169.3547,3,1,0.2549,,19,1,191,1,1,2,R,,3,,,,,,,
,,,,,,,,,,1,LITB_Example,2024-09-24_15h33.24.296,Motor_Task,2023.2.2,MacIntel,59.88023952,169.3552,169.6382,2,1,0.2782,,19,2,192,2,1,3,M,,2,,,,,,,
,,,,,,,,,,1,LITB_Example,2024-09-24_15h33.24.296,Motor_Task,2023.2.2,MacIntel,59.88023952,169.6386,169.8891,3,1,0.2374,,19,3,193,3,1,4,R,,3,,,,,,,
,,,,,,,,,,1,LITB_Example,2024-09-24_15h33.24.296,Motor_Task,2023.2.2,MacIntel,59.88023952,169.8894,170.4381,1,1,0.5378,,19,4,194,4,1,5,I,,1,,,,,,,
,,,,,,,,,,1,LITB_Example,2024-09-24_15h33.24.296,Motor_Task,2023.2.2,MacIntel,59.88023952,170.4386,170.8558,1,1,0.4082,,19,5,195,5,1,6,I,,1,,,,,,,
,,,,,,,,,,1,LITB_Example,2024-09-24_15h33.24.296,Motor_Task,2023.2.2,MacIntel,59.88023952,170.8562,171.4392,3,1,0.5698,,19,6,196,6,1,7,R,,3,,,,,,,
,,,,,,,,,,1,LITB_Example,2024-09-24_15h33.24.296,Motor_Task,2023.2.2,MacIntel,59.88023952,171.4395,171.7057,2,1,0.2546,,19,7,197,7,1,8,M,,2,,,,,,,
,,,,,,,,,,1,LITB_Example,2024-09-24_15h33.24.296,Motor_Task,2023.2.2,MacIntel,59.88023952,171.706,172.0558,4,1,0.3366,,19,8,198,8,1,9,L,,4,,,,,,,
,,,,,,,,,,1,LITB_Example,2024-09-24_15h33.24.296,Motor_Task,2023.2.2,MacIntel,59.88023952,172.0561,172.4057,1,1,0.3401,,19,9,199,9,1,10,I,,1,,,,,,,
,,,,,,,,,,1,LITB_Example,2024-09-24_15h33.24.296,Motor_Task,2023.2.2,MacIntel,59.88023952,172.4122,173.3558,3,1,0.9305,,,,,,,2,R,,3,0,0,0,1,1,,
,,,,,,,,,,1,LITB_Example,2024-09-24_15h33.24.296,Motor_Task,2023.2.2,MacIntel,59.88023952,173.3565,174.4058,4,1,1.0373,,,,,,,9,L,,4,0,1,1,8,1,,
,,,,,,,,,,1,LITB_Example,2024-09-24_15h33.24.296,Motor_Task,2023.2.2,MacIntel,59.88023952,174.4062,175.156,1,1,0.7412,,,,,,,5,I,,1,0,2,2,4,1,,
,,,,,,,,,,1,LITB_Example,2024-09-24_15h33.24.296,Motor_Task,2023.2.2,MacIntel,59.88023952,175.1564,175.8057,2,1,0.6479,,,,,,,8,M,,2,0,3,3,7,1,,
,,,,,,,,,,1,LITB_Example,2024-09-24_15h33.24.296,Motor_Task,2023.2.2,MacIntel,59.88023952,175.8061,176.0385,3,1,0.2308,,,,,,,7,R,,3,0,4,4,6,1,,
,,,,,,,,,,1,LITB_Example,2024-09-24_15h33.24.296,Motor_Task,2023.2.2,MacIntel,59.88023952,176.0388,177.0216,3,1,0.97,,,,,,,4,R,,3,0,5,5,3,1,,
,,,,,,,,,,1,LITB_Example,2024-09-24_15h33.24.296,Motor_Task,2023.2.2,MacIntel,59.88023952,177.022,177.6384,2,1,0.6042,,,,,,,3,M,,2,0,6,6,2,1,,
,,,,,,,,,,1,LITB_Example,2024-09-24_15h33.24.296,Motor_Task,2023.2.2,MacIntel,59.88023952,177.6388,178.305,1,1,0.6546,,,,,,,10,I,,1,0,7,7,9,1,,
,,,,,,,,,,1,LITB_Example,2024-09-24_15h33.24.296,Motor_Task,2023.2.2,MacIntel,59.88023952,178.3054,178.9883,1,1,0.6699,,,,,,,6,I,,1,0,8,8,5,1,,
,,,,,,,,,,1,LITB_Example,2024-09-24_15h33.24.296,Motor_Task,2023.2.2,MacIntel,59.88023952,178.9888,180.1395,2,1,1.1383,,,,,,,1,M,,2,0,9,9,0,1,,
,,,,,,,,,,1,LITB_Example,2024-09-24_15h33.24.296,Motor_Task,2023.2.2,MacIntel,59.88023952,180.1399,180.9058,4,1,0.7647,,,,,,,9,L,,4,1,0,10,8,1,,
,,,,,,,,,,1,LITB_Example,2024-09-24_15h33.24.296,Motor_Task,2023.2.2,MacIntel,59.88023952,180.9061,182.2884,2,1,1.3698,,,,,,,1,M,,2,1,1,11,0,1,,
,,,,,,,,,,1,LITB_Example,2024-09-24_15h33.24.296,Motor_Task,2023.2.2,MacIntel,59.88023952,182.2887,183.006,1,1,0.705,,,,,,,5,I,,1,1,2,12,4,1,,
,,,,,,,,,,1,LITB_Example,2024-09-24_15h33.24.296,Motor_Task,2023.2.2,MacIntel,59.88023952,183.0063,183.6893,2,1,0.6821,,,,,,,3,M,,2,1,3,13,2,1,,
,,,,,,,,,,1,LITB_Example,2024-09-24_15h33.24.296,Motor_Task,2023.2.2,MacIntel,59.88023952,183.6898,184.2894,1,1,0.5863,,,,,,,10,I,,1,1,4,14,9,1,,
,,,,,,,,,,1,LITB_Example,2024-09-24_15h33.24.296,Motor_Task,2023.2.2,MacIntel,59.88023952,184.2898,184.6062,2,0,0.3078,,,,,,,4,R,,3,1,5,15,3,1,,
,,,,,,,,,,1,LITB_Example,2024-09-24_15h33.24.296,Motor_Task,2023.2.2,MacIntel,59.88023952,184.6066,185.6562,2,1,1.0356,,,,,,,8,M,,2,1,6,16,7,1,,
,,,,,,,,,,1,LITB_Example,2024-09-24_15h33.24.296,Motor_Task,2023.2.2,MacIntel,59.88023952,185.6566,186.3895,3,1,0.7237,,,,,,,2,R,,3,1,7,17,1,1,,
,,,,,,,,,,1,LITB_Example,2024-09-24_15h33.24.296,Motor_Task,2023.2.2,MacIntel,59.88023952,186.3899,187.0219,1,1,0.6198,,,,,,,6,I,,1,1,8,18,5,1,,
,,,,,,,,,,1,LITB_Example,2024-09-24_15h33.24.296,Motor_Task,2023.2.2,MacIntel,59.88023952,187.0223,187.6064,3,1,0.5834,,,,,,,7,R,,3,1,9,19,6,1,,
,,,,,,,,,,1,LITB_Example,2024-09-24_15h33.24.296,Motor_Task,2023.2.2,MacIntel,59.88023952,187.6069,188.1896,1,1,0.571,,,,,,,5,I,,1,2,0,20,4,1,,
,,,,,,,,,,1,LITB_Example,2024-09-24_15h33.24.296,Motor_Task,2023.2.2,MacIntel,59.88023952,188.1899,189.0396,2,1,0.8367,,,,,,,3,M,,2,2,1,21,2,1,,
,,,,,,,,,,1,LITB_Example,2024-09-24_15h33.24.296,Motor_Task,2023.2.2,MacIntel,59.88023952,189.04,189.5387,3,1,0.4864,,,,,,,2,R,,3,2,2,22,1,1,,
,,,,,,,,,,1,LITB_Example,2024-09-24_15h33.24.296,Motor_Task,2023.2.2,MacIntel,59.88023952,189.539,190.2396,2,1,0.6933,,,,,,,1,M,,2,2,3,23,0,1,,
,,,,,,,,,,1,LITB_Example,2024-09-24_15h33.24.296,Motor_Task,2023.2.2,MacIntel,59.88023952,190.2399,190.7562,3,1,0.5074,,,,,,,7,R,,3,2,4,24,6,1,,
,,,,,,,,,,1,LITB_Example,2024-09-24_15h33.24.296,Motor_Task,2023.2.2,MacIntel,59.88023952,190.7566,191.4223,1,1,0.6649,,,,,,,10,I,,1,2,5,25,9,1,,
,,,,,,,,,,1,LITB_Example,2024-09-24_15h33.24.296,Motor_Task,2023.2.2,MacIntel,59.88023952,191.4227,192.0729,2,1,0.6399,,,,,,,8,M,,2,2,6,26,7,1,,
,,,,,,,,,,1,LITB_Example,2024-09-24_15h33.24.296,Motor_Task,2023.2.2,MacIntel,59.88023952,192.0732,192.6064,3,1,0.52,,,,,,,4,R,,3,2,7,27,3,1,,
,,,,,,,,,,1,LITB_Example,2024-09-24_15h33.24.296,Motor_Task,2023.2.2,MacIntel,59.88023952,192.6068,193.3552,1,1,0.7365,,,,,,,6,I,,1,2,8,28,5,1,,
,,,,,,,,,,1,LITB_Example,2024-09-24_15h33.24.296,Motor_Task,2023.2.2,MacIntel,59.88023952,193.3556,194.0063,4,1,0.6384,,,,,,,9,L,,4,2,9,29,8,1,,
,,,,,,,,,,1,LITB_Example,2024-09-24_15h33.24.296,Motor_Task,2023.2.2,MacIntel,59.88023952,194.0066,194.624,1,1,0.6031,,,,,,,10,I,,1,3,0,30,9,1,,
,,,,,,,,,,1,LITB_Example,2024-09-24_15h33.24.296,Motor_Task,2023.2.2,MacIntel,59.88023952,194.6244,195.4064,4,1,0.7723,,,,,,,9,L,,4,3,1,31,8,1,,
,,,,,,,,,,1,LITB_Example,2024-09-24_15h33.24.296,Motor_Task,2023.2.2,MacIntel,59.88023952,195.4067,196.323,3,1,0.9027,,,,,,,2,R,,3,3,2,32,1,1,,
,,,,,,,,,,1,LITB_Example,2024-09-24_15h33.24.296,Motor_Task,2023.2.2,MacIntel,59.88023952,196.3234,197.0064,1,1,0.6738,,,,,,,6,I,,1,3,3,33,5,1,,
,,,,,,,,,,1,LITB_Example,2024-09-24_15h33.24.296,Motor_Task,2023.2.2,MacIntel,59.88023952,197.0068,197.6898,2,1,0.6739,,,,,,,8,M,,2,3,4,34,7,1,,
,,,,,,,,,,1,LITB_Example,2024-09-24_15h33.24.296,Motor_Task,2023.2.2,MacIntel,59.88023952,197.6903,198.3221,2,1,0.6303,,,,,,,1,M,,2,3,5,35,0,1,,
,,,,,,,,,,1,LITB_Example,2024-09-24_15h33.24.296,Motor_Task,2023.2.2,MacIntel,59.88023952,198.3225,199.0064,1,1,0.6711,,,,,,,5,I,,1,3,6,36,4,1,,
,,,,,,,,,,1,LITB_Example,2024-09-24_15h33.24.296,Motor_Task,2023.2.2,MacIntel,59.88023952,199.0068,199.5229,3,1,0.5148,,,,,,,7,R,,3,3,7,37,6,1,,
,,,,,,,,,,1,LITB_Example,2024-09-24_15h33.24.296,Motor_Task,2023.2.2,MacIntel,59.88023952,199.5233,200.1064,3,1,0.5828,,,,,,,4,R,,3,3,8,38,3,1,,
,,,,,,,,,,1,LITB_Example,2024-09-24_15h33.24.296,Motor_Task,2023.2.2,MacIntel,59.88023952,200.1067,200.8227,2,1,0.7025,,,,,,,3,M,,2,3,9,39,2,1,,
,,,,,,,,,,1,LITB_Example,2024-09-24_15h33.24.296,Motor_Task,2023.2.2,MacIntel,59.88023952,200.823,201.3398,1,1,0.5035,,,,,,,10,I,,1,4,0,40,9,1,,
,,,,,,,,,,1,LITB_Example,2024-09-24_15h33.24.296,Motor_Task,2023.2.2,MacIntel,59.88023952,201.3402,201.8557,1,1,0.5035,,,,,,,6,I,,1,4,1,41,5,1,,
,,,,,,,,,,1,LITB_Example,2024-09-24_15h33.24.296,Motor_Task,2023.2.2,MacIntel,59.88023952,201.856,202.5388,3,1,0.6713,,,,,,,7,R,,3,4,2,42,6,1,,
,,,,,,,,,,1,LITB_Example,2024-09-24_15h33.24.296,Motor_Task,2023.2.2,MacIntel,59.88023952,202.5392,203.1065,3,1,0.5582,,,,,,,4,R,,3,4,3,43,3,1,,
,,,,,,,,,,1,LITB_Example,2024-09-24_15h33.24.296,Motor_Task,2023.2.2,MacIntel,59.88023952,203.1069,203.79,2,1,0.6699,,,,,,,1,M,,2,4,4,44,0,1,,
,,,,,,,,,,1,LITB_Example,2024-09-24_15h33.24.296,Motor_Task,2023.2.2,MacIntel,59.88023952,203.7903,204.4566,4,1,0.6659,,,,,,,9,L,,4,4,5,45,8,1,,
,,,,,,,,,,1,LITB_Example,2024-09-24_15h33.24.296,Motor_Task,2023.2.2,MacIntel,59.88023952,204.4569,205.3058,2,1,0.8415,,,,,,,8,M,,2,4,6,46,7,1,,
,,,,,,,,,,1,LITB_Example,2024-09-24_15h33.24.296,Motor_Task,2023.2.2,MacIntel,59.88023952,205.3062,205.9899,3,1,0.6712,,,,,,,2,R,,3,4,7,47,1,1,,
,,,,,,,,,,1,LITB_Example,2024-09-24_15h33.24.296,Motor_Task,2023.2.2,MacIntel,59.88023952,205.9903,206.8735,2,1,0.8725,,,,,,,3,M,,2,4,8,48,2,1,,
,,,,,,,,,,1,LITB_Example,2024-09-24_15h33.24.296,Motor_Task,2023.2.2,MacIntel,59.88023952,206.874,207.4229,1,1,0.5442,,,,,,,5,I,,1,4,9,49,4,1,,
,,,,,,,,,,1,LITB_Example,2024-09-24_15h33.24.296,Motor_Task,2023.2.2,MacIntel,59.88023952,,,,,,,,,,,,,,,,,,,,,207.423,211.4237