Trigger.started,Trigger.stopped,key_resp_4.keys,key_resp_4.rt,key_resp_4.duration,mouse.x,mouse.y,mouse.leftButton,mouse.midButton,mouse.rightButton,Session,Subject,date,expName,psychopyVersion,OS,frameRate,complex_block.started,complex_block.stopped,key_resp.keys,key_resp.corr,key_resp.rt,key_resp.duration,complex_block_loop.thisRepN,complex_block_loop.thisTrialN,complex_block_loop.thisN,complex_block_loop.thisIndex,complex_block_loop.ran,trial,finger,markerPos,correctResp,new_block_loop.thisRepN,new_block_loop.thisTrialN,new_block_loop.thisN,new_block_loop.thisIndex,new_block_loop.ran,endBuffer.started,endBuffer.stopped
0.0005,97.887,space,97.8504,,-0.101381553,-0.131421982,0,0,0,1,lunar,2024-09-24_15h32.27.362,Motor_Task,2023.2.2,Win32,60.79027356,,,,,,,,,,,,,,,,,,,,,,
,,,,,,,,,,1,lunar,2024-09-24_15h32.27.362,Motor_Task,2023.2.2,Win32,60.79027356,97.9261,99.4352,2,1,1.501400001,,0,0,0,0,1,1,M,,2,,,,,,,
,,,,,,,,,,1,lunar,2024-09-24_15h32.27.362,Motor_Task,2023.2.2,Win32,60.79027356,99.436,100.1017,3,1,0.6628,,0,1,1,1,1,2,R,,3,,,,,,,
,,,,,,,,,,1,lunar,2024-09-24_15h32.27.362,Motor_Task,2023.2.2,Win32,60.79027356,100.1022,100.7519,2,1,0.639599999,,0,2,2,2,1,3,M,,2,,,,,,,
,,,,,,,,,,1,lunar,2024-09-24_15h32.27.362,Motor_Task,2023.2.2,Win32,60.79027356,100.7527,101.3695,2,0,0.6162,,0,3,3,3,1,4,R,,3,,,,,,,
,,,,,,,,,,1,lunar,2024-09-24_15h32.27.362,Motor_Task,2023.2.2,Win32,60.79027356,101.3701,102.1188,1,1,0.7383,,0,4,4,4,1,5,I,,1,,,,,,,
,,,,,,,,,,1,lunar,2024-09-24_15h32.27.362,Motor_Task,2023.2.2,Win32,60.79027356,102.1193,102.7679,1,1,0.645099999,,0,5,5,5,1,6,I,,1,,,,,,,
,,,,,,,,,,1,lunar,2024-09-24_15h32.27.362,Motor_Task,2023.2.2,Win32,60.79027356,102.7684,103.5684,3,1,0.7897,,0,6,6,6,1,7,R,,3,,,,,,,
,,,,,,,,,,1,lunar,2024-09-24_15h32.27.362,Motor_Task,2023.2.2,Win32,60.79027356,103.5689,104.118,2,1,0.5468,,0,7,7,7,1,8,M,,2,,,,,,,
,,,,,,,,,,1,lunar,2024-09-24_15h32.27.362,Motor_Task,2023.2.2,Win32,60.79027356,104.1185,104.8516,4,1,0.73,,0,8,8,8,1,9,L,,4,,,,,,,
,,,,,,,,,,1,lunar,2024-09-24_15h32.27.362,Motor_Task,2023.2.2,Win32,60.79027356,104.852,105.3516,1,1,0.4881,,0,9,9,9,1,10,I,,1,,,,,,,
,,,,,,,,,,1,lunar,2024-09-24_15h32.27.362,Motor_Task,2023.2.2,Win32,60.79027356,105.352,105.9514,2,1,0.5893,,1,0,10,0,1,1,M,,2,,,,,,,
,,,,,,,,,,1,lunar,2024-09-24_15h32.27.362,Motor_Task,2023.2.2,Win32,60.79027356,105.952,106.4343,3,1,0.4811,,1,1,11,1,1,2,R,,3,,,,,,,
,,,,,,,,,,1,lunar,2024-09-24_15h32.27.362,Motor_Task,2023.2.2,Win32,60.79027356,106.4348,107.0351,2,1,0.5898,,1,2,12,2,1,3,M,,2,,,,,,,
,,,,,,,,,,1,lunar,2024-09-24_15h32.27.362,Motor_Task,2023.2.2,Win32,60.79027356,107.0358,107.6344,3,1,0.587900001,,1,3,13,3,1,4,R,,3,,,,,,,
,,,,,,,,,,1,lunar,2024-09-24_15h32.27.362,Motor_Task,2023.2.2,Win32,60.79027356,107.635,108.1516,1,1,0.5052,,1,4,14,4,1,5,I,,1,,,,,,,
,,,,,,,,,,1,lunar,2024-09-24_15h32.27.362,Motor_Task,2023.2.2,Win32,60.79027356,108.152,108.6846,1,1,0.5207,,1,5,15,5,1,6,I,,1,,,,,,,
,,,,,,,,,,1,lunar,2024-09-24_15h32.27.362,Motor_Task,2023.2.2,Win32,60.79027356,108.6853,109.3688,3,1,0.671900001,,1,6,16,6,1,7,R,,3,,,,,,,
,,,,,,,,,,1,lunar,2024-09-24_15h32.27.362,Motor_Task,2023.2.2,Win32,60.79027356,109.3694,109.8847,2,1,0.5049,,1,7,17,7,1,8,M,,2,,,,,,,
,,,,,,,,,,1,lunar,2024-09-24_15h32.27.362,Motor_Task,2023.2.2,Win32,60.79027356,109.8851,110.451,4,1,0.5635,,1,8,18,8,1,9,L,,4,,,,,,,
,,,,,,,,,,1,lunar,2024-09-24_15h32.27.362,Motor_Task,2023.2.2,Win32,60.79027356,110.4516,110.968,1,1,0.5053,,1,9,19,9,1,10,I,,1,,,,,,,
,,,,,,,,,,1,lunar,2024-09-24_15h32.27.362,Motor_Task,2023.2.2,Win32,60.79027356,110.9685,111.5509,2,1,0.5771,,2,0,20,0,1,1,M,,2,,,,,,,
,,,,,,,,,,1,lunar,2024-09-24_15h32.27.362,Motor_Task,2023.2.2,Win32,60.79027356,111.5515,112.0839,3,1,0.5214,,2,1,21,1,1,2,R,,3,,,,,,,
,,,,,,,,,,1,lunar,2024-09-24_15h32.27.362,Motor_Task,2023.2.2,Win32,60.79027356,112.0848,112.701,2,1,0.604200001,,2,2,22,2,1,3,M,,2,,,,,,,
,,,,,,,,,,1,lunar,2024-09-24_15h32.27.362,Motor_Task,2023.2.2,Win32,60.79027356,112.7016,113.2012,3,1,0.4912,,2,3,23,3,1,4,R,,3,,,,,,,
,,,,,,,,,,1,lunar,2024-09-24_15h32.27.362,Motor_Task,2023.2.2,Win32,60.79027356,113.2017,113.735,1,1,0.5225,,2,4,24,4,1,5,I,,1,,,,,,,
,,,,,,,,,,1,lunar,2024-09-24_15h32.27.362,Motor_Task,2023.2.2,Win32,60.79027356,113.7354,114.2674,1,1,0.5293,,2,5,25,5,1,6,I,,1,,,,,,,
,,,,,,,,,,1,lunar,2024-09-24_15h32.27.362,Motor_Task,2023.2.2,Win32,60.79027356,114.268,115.0674,3,1,0.7887,,2,6,26,6,1,7,R,,3,,,,,,,
,,,,,,,,,,1,lunar,2024-09-24_15h32.27.362,Motor_Task,2023.2.2,Win32,60.79027356,115.0678,115.5513,2,1,0.4715,,2,7,27,7,1,8,M,,2,,,,,,,
,,,,,,,,,,1,lunar,2024-09-24_15h32.27.362,Motor_Task,2023.2.2,Win32,60.79027356,115.5521,116.1007,4,1,0.541299999,,2,8,28,8,1,9,L,,4,,,,,,,
,,,,,,,,,,1,lunar,2024-09-24_15h32.27.362,Motor_Task,2023.2.2,Win32,60.79027356,116.1012,116.6346,1,1,0.5215,,2,9,29,9,1,10,I,,1,,,,,,,
,,,,,,,,,,1,lunar,2024-09-24_15h32.27.362,Motor_Task,2023.2.2,Win32,60.79027356,116.635,117.1171,2,1,0.4798,,3,0,30,0,1,1,M,,2,,,,,,,
,,,,,,,,,,1,lunar,2024-09-24_15h32.27.362,Motor_Task,2023.2.2,Win32,60.79027356,117.1175,117.568,3,1,0.4498,,3,1,31,1,1,2,R,,3,,,,,,,
,,,,,,,,,,1,lunar,2024-09-24_15h32.27.362,Motor_Task,2023.2.2,Win32,60.79027356,117.5684,118.0508,3,0,0.4704,,3,2,32,2,1,3,M,,2,,,,,,,
,,,,,,,,,,1,lunar,2024-09-24_15h32.27.362,Motor_Task,2023.2.2,Win32,60.79027356,118.0513,118.0841,2,0,0.0217,,3,3,33,3,1,4,R,,3,,,,,,,
,,,,,,,,,,1,lunar,2024-09-24_15h32.27.362,Motor_Task,2023.2.2,Win32,60.79027356,118.0846,118.618,1,1,0.5252,,3,4,34,4,1,5,I,,1,,,,,,,
,,,,,,,,,,1,lunar,2024-09-24_15h32.27.362,Motor_Task,2023.2.2,Win32,60.79027356,118.6186,119.2344,1,1,0.604299999,,3,5,35,5,1,6,I,,1,,,,,,,
,,,,,,,,,,1,lunar,2024-09-24_15h32.27.362,Motor_Task,2023.2.2,Win32,60.79027356,119.2348,119.951,3,1,0.711,,3,6,36,6,1,7,R,,3,,,,,,,
,,,,,,,,,,1,lunar,2024-09-24_15h32.27.362,Motor_Task,2023.2.2,Win32,60.79027356,119.9514,120.601,2,1,0.6488,,3,7,37,7,1,8,M,,2,,,,,,,
,,,,,,,,,,1,lunar,2024-09-24_15h32.27.362,Motor_Task,2023.2.2,Win32,60.79027356,120.6016,121.2837,4,1,0.6772,,3,8,38,8,1,9,L,,4,,,,,,,
,,,,,,,,,,1,lunar,2024-09-24_15h32.27.362,Motor_Task,2023.2.2,Win32,60.79027356,121.2843,121.8011,1,1,0.505900001,,3,9,39,9,1,10,I,,1,,,,,,,
,,,,,,,,,,1,lunar,2024-09-24_15h32.27.362,Motor_Task,2023.2.2,Win32,60.79027356,121.8017,122.3842,2,1,0.5737,,4,0,40,0,1,1,M,,2,,,,,,,
,,,,,,,,,,1,lunar,2024-09-24_15h32.27.362,Motor_Task,2023.2.2,Win32,60.79027356,122.3848,122.8337,3,1,0.4436,,4,1,41,1,1,2,R,,3,,,,,,,
,,,,,,,,,,1,lunar,2024-09-24_15h32.27.362,Motor_Task,2023.2.2,Win32,60.79027356,122.8341,123.3172,2,1,0.4791,,4,2,42,2,1,3,M,,2,,,,,,,
,,,,,,,,,,1,lunar,2024-09-24_15h32.27.362,Motor_Task,2023.2.2,Win32,60.79027356,123.3177,123.918,3,1,0.5892,,4,3,43,3,1,4,R,,3,,,,,,,
,,,,,,,,,,1,lunar,2024-09-24_15h32.27.362,Motor_Task,2023.2.2,Win32,60.79027356,123.9188,124.4338,1,1,0.5138,,4,4,44,4,1,5,I,,1,,,,,,,
,,,,,,,,,,1,lunar,2024-09-24_15h32.27.362,Motor_Task,2023.2.2,Win32,60.79027356,124.4342,124.9828,1,1,0.5424,,4,5,45,5,1,6,I,,1,,,,,,,
,,,,,,,,,,1,lunar,2024-09-24_15h32.27.362,Motor_Task,2023.2.2,Win32,60.79027356,124.983,125.5661,3,1,0.5703,,4,6,46,6,1,7,R,,3,,,,,,,
,,,,,,,,,,1,lunar,2024-09-24_15h32.27.362,Motor_Task,2023.2.2,Win32,60.79027356,125.5663,126.1005,2,1,0.5235,,4,7,47,7,1,8,M,,2,,,,,,,
,,,,,,,,,,1,lunar,2024-09-24_15h32.27.362,Motor_Task,2023.2.2,Win32,60.79027356,126.1012,126.6833,4,1,0.5691,,4,8,48,8,1,9,L,,4,,,,,,,
,,,,,,,,,,1,lunar,2024-09-24_15h32.27.362,Motor_Task,2023.2.2,Win32,60.79027356,126.6835,127.1663,1,1,0.481,,4,9,49,9,1,10,I,,1,,,,,,,
,,,,,,,,,,1,lunar,2024-09-24_15h32.27.362,Motor_Task,2023.2.2,Win32,60.79027356,127.1667,127.633,3,0,0.4545,,5,0,50,0,1,1,M,,2,,,,,,,
,,,,,,,,,,1,lunar,2024-09-24_15h32.27.362,Motor_Task,2023.2.2,Win32,60.79027356,127.6333,127.9829,2,0,0.337599999,,5,1,51,1,1,2,R,,3,,,,,,,
,,,,,,,,,,1,lunar,2024-09-24_15h32.27.362,Motor_Task,2023.2.2,Win32,60.79027356,127.9834,128.8172,2,1,0.824200001,,5,2,52,2,1,3,M,,2,,,,,,,
,,,,,,,,,,1,lunar,2024-09-24_15h32.27.362,Motor_Task,2023.2.2,Win32,60.79027356,128.8178,129.3009,3,1,0.482400001,,5,3,53,3,1,4,R,,3,,,,,,,
,,,,,,,,,,1,lunar,2024-09-24_15h32.27.362,Motor_Task,2023.2.2,Win32,60.79027356,129.3014,129.7848,1,1,0.4825,,5,4,54,4,1,5,I,,1,,,,,,,
,,,,,,,,,,1,lunar,2024-09-24_15h32.27.362,Motor_Task,2023.2.2,Win32,60.79027356,129.7853,130.3515,1,1,0.5652,,5,5,55,5,1,6,I,,1,,,,,,,
,,,,,,,,,,1,lunar,2024-09-24_15h32.27.362,Motor_Task,2023.2.2,Win32,60.79027356,130.352,131.0004,3,1,0.638700001,,5,6,56,6,1,7,R,,3,,,,,,,
,,,,,,,,,,1,lunar,2024-09-24_15h32.27.362,Motor_Task,2023.2.2,Win32,60.79027356,131.0014,131.434,2,1,0.4238,,5,7,57,7,1,8,M,,2,,,,,,,
,,,,,,,,,,1,lunar,2024-09-24_15h32.27.362,Motor_Task,2023.2.2,Win32,60.79027356,131.4348,132.2677,4,1,0.8262,,5,8,58,8,1,9,L,,4,,,,,,,
,,,,,,,,,,1,lunar,2024-09-24_15h32.27.362,Motor_Task,2023.2.2,Win32,60.79027356,132.2681,132.7176,1,1,0.4484,,5,9,59,9,1,10,I,,1,,,,,,,
,,,,,,,,,,1,lunar,2024-09-24_15h32.27.362,Motor_Task,2023.2.2,Win32,60.79027356,132.7181,133.201,2,1,0.4822,,6,0,60,0,1,1,M,,2,,,,,,,
,,,,,,,,,,1,lunar,2024-09-24_15h32.27.362,Motor_Task,2023.2.2,Win32,60.79027356,133.2015,133.6668,3,1,0.461900001,,6,1,61,1,1,2,R,,3,,,,,,,
,,,,,,,,,,1,lunar,2024-09-24_15h32.27.362,Motor_Task,2023.2.2,Win32,60.79027356,133.6679,134.1839,2,1,0.5062,,6,2,62,2,1,3,M,,2,,,,,,,
,,,,,,,,,,1,lunar,2024-09-24_15h32.27.362,Motor_Task,2023.2.2,Win32,60.79027356,134.1845,134.6663,3,1,0.4811,,6,3,63,3,1,4,R,,3,,,,,,,
,,,,,,,,,,1,lunar,2024-09-24_15h32.27.362,Motor_Task,2023.2.2,Win32,60.79027356,134.6664,135.1992,1,1,0.5297,,6,4,64,4,1,5,I,,1,,,,,,,
,,,,,,,,,,1,lunar,2024-09-24_15h32.27.362,Motor_Task,2023.2.2,Win32,60.79027356,135.1997,135.6993,1,1,0.4928,,6,5,65,5,1,6,I,,1,,,,,,,
,,,,,,,,,,1,lunar,2024-09-24_15h32.27.362,Motor_Task,2023.2.2,Win32,60.79027356,135.6997,136.4331,3,1,0.726,,6,6,66,6,1,7,R,,3,,,,,,,
,,,,,,,,,,1,lunar,2024-09-24_15h32.27.362,Motor_Task,2023.2.2,Win32,60.79027356,136.434,136.9166,2,1,0.4731,,6,7,67,7,1,8,M,,2,,,,,,,
,,,,,,,,,,1,lunar,2024-09-24_15h32.27.362,Motor_Task,2023.2.2,Win32,60.79027356,136.9174,137.4327,4,1,0.5051,,6,8,68,8,1,9,L,,4,,,,,,,
,,,,,,,,,,1,lunar,2024-09-24_15h32.27.362,Motor_Task,2023.2.2,Win32,60.79027356,137.4331,137.8836,1,1,0.4427,,6,9,69,9,1,10,I,,1,,,,,,,
,,,,,,,,,,1,lunar,2024-09-24_15h32.27.362,Motor_Task,2023.2.2,Win32,60.79027356,137.884,138.6167,2,1,0.7318,,7,0,70,0,1,1,M,,2,,,,,,,
,,,,,,,,,,1,lunar,2024-09-24_15h32.27.362,Motor_Task,2023.2.2,Win32,60.79027356,138.6173,139.0494,3,1,0.4207,,7,1,71,1,1,2,R,,3,,,,,,,
,,,,,,,,,,1,lunar,2024-09-24_15h32.27.362,Motor_Task,2023.2.2,Win32,60.79027356,139.05,139.5502,2,1,0.4932,,7,2,72,2,1,3,M,,2,,,,,,,
,,,,,,,,,,1,lunar,2024-09-24_15h32.27.362,Motor_Task,2023.2.2,Win32,60.79027356,139.5508,140.0333,3,1,0.4713,,7,3,73,3,1,4,R,,3,,,,,,,
,,,,,,,,,,1,lunar,2024-09-24_15h32.27.362,Motor_Task,2023.2.2,Win32,60.79027356,140.0338,140.5825,1,1,0.5367,,7,4,74,4,1,5,I,,1,,,,,,,
,,,,,,,,,,1,lunar,2024-09-24_15h32.27.362,Motor_Task,2023.2.2,Win32,60.79027356,140.5829,141.1167,1,1,0.5231,,7,5,75,5,1,6,I,,1,,,,,,,
,,,,,,,,,,1,lunar,2024-09-24_15h32.27.362,Motor_Task,2023.2.2,Win32,60.79027356,141.1172,141.6668,3,1,0.541700001,,7,6,76,6,1,7,R,,3,,,,,,,
,,,,,,,,,,1,lunar,2024-09-24_15h32.27.362,Motor_Task,2023.2.2,Win32,60.79027356,141.6674,142.1993,2,1,0.5208,,7,7,77,7,1,8,M,,2,,,,,,,
,,,,,,,,,,1,lunar,2024-09-24_15h32.27.362,Motor_Task,2023.2.2,Win32,60.79027356,142.1999,142.8162,4,1,0.6053,,7,8,78,8,1,9,L,,4,,,,,,,
,,,,,,,,,,1,lunar,2024-09-24_15h32.27.362,Motor_Task,2023.2.2,Win32,60.79027356,142.8168,143.2826,1,1,0.46,,7,9,79,9,1,10,I,,1,,,,,,,
,,,,,,,,,,1,lunar,2024-09-24_15h32.27.362,Motor_Task,2023.2.2,Win32,60.79027356,143.2829,143.7662,1,0,0.4787,,8,0,80,0,1,1,M,,2,,,,,,,
,,,,,,,,,,1,lunar,2024-09-24_15h32.27.362,Motor_Task,2023.2.2,Win32,60.79027356,143.7667,144.4654,3,1,0.6845,,8,1,81,1,1,2,R,,3,,,,,,,
,,,,,,,,,,1,lunar,2024-09-24_15h32.27.362,Motor_Task,2023.2.2,Win32,60.79027356,144.4657,144.9823,2,1,0.507099999,,8,2,82,2,1,3,M,,2,,,,,,,
,,,,,,,,,,1,lunar,2024-09-24_15h32.27.362,Motor_Task,2023.2.2,Win32,60.79027356,144.9828,145.4658,3,1,0.471200001,,8,3,83,3,1,4,R,,3,,,,,,,
,,,,,,,,,,1,lunar,2024-09-24_15h32.27.362,Motor_Task,2023.2.2,Win32,60.79027356,145.4664,146.1497,1,1,0.672599999,,8,4,84,4,1,5,I,,1,,,,,,,
,,,,,,,,,,1,lunar,2024-09-24_15h32.27.362,Motor_Task,2023.2.2,Win32,60.79027356,146.1501,146.7662,1,1,0.6047,,8,5,85,5,1,6,I,,1,,,,,,,
,,,,,,,,,,1,lunar,2024-09-24_15h32.27.362,Motor_Task,2023.2.2,Win32,60.79027356,146.7668,147.3996,3,1,0.6322,,8,6,86,6,1,7,R,,3,,,,,,,
,,,,,,,,,,1,lunar,2024-09-24_15h32.27.362,Motor_Task,2023.2.2,Win32,60.79027356,147.4,147.8822,2,1,0.4719,,8,7,87,7,1,8,M,,2,,,,,,,
,,,,,,,,,,1,lunar,2024-09-24_15h32.27.362,Motor_Task,2023.2.2,Win32,60.79027356,147.8829,148.4815,4,1,0.585099999,,8,8,88,8,1,9,L,,4,,,,,,,
,,,,,,,,,,1,lunar,2024-09-24_15h32.27.362,Motor_Task,2023.2.2,Win32,60.79027356,148.4817,148.9153,1,1,0.431599999,,8,9,89,9,1,10,I,,1,,,,,,,
,,,,,,,,,,1,lunar,2024-09-24_15h32.27.362,Motor_Task,2023.2.2,Win32,60.79027356,148.9155,149.4321,2,1,0.507400001,,9,0,90,0,1,1,M,,2,,,,,,,
,,,,,,,,,,1,lunar,2024-09-24_15h32.27.362,Motor_Task,2023.2.2,Win32,60.79027356,149.4328,149.8993,3,1,0.4657,,9,1,91,1,1,2,R,,3,,,,,,,
,,,,,,,,,,1,lunar,2024-09-24_15h32.27.362,Motor_Task,2023.2.2,Win32,60.79027356,149.8996,150.399,2,1,0.4907,,9,2,92,2,1,3,M,,2,,,,,,,
,,,,,,,,,,1,lunar,2024-09-24_15h32.27.362,Motor_Task,2023.2.2,Win32,60.79027356,150.3995,150.8653,3,1,0.4545,,9,3,93,3,1,4,R,,3,,,,,,,
,,,,,,,,,,1,lunar,2024-09-24_15h32.27.362,Motor_Task,2023.2.2,Win32,60.79027356,150.866,151.4666,1,1,0.5997,,9,4,94,4,1,5,I,,1,,,,,,,
,,,,,,,,,,1,lunar,2024-09-24_15h32.27.362,Motor_Task,2023.2.2,Win32,60.79027356,151.467,152.0316,1,1,0.551700001,,9,5,95,5,1,6,I,,1,,,,,,,
,,,,,,,,,,1,lunar,2024-09-24_15h32.27.362,Motor_Task,2023.2.2,Win32,60.79027356,152.0317,152.5982,3,1,0.559900001,,9,6,96,6,1,7,R,,3,,,,,,,
,,,,,,,,,,1,lunar,2024-09-24_15h32.27.362,Motor_Task,2023.2.2,Win32,60.79027356,152.599,153.0647,2,1,0.454900001,,9,7,97,7,1,8,M,,2,,,,,,,
,,,,,,,,,,1,lunar,2024-09-24_15h32.27.362,Motor_Task,2023.2.2,Win32,60.79027356,153.0651,153.5145,4,1,0.4393,,9,8,98,8,1,9,L,,4,,,,,,,
,,,,,,,,,,1,lunar,2024-09-24_15h32.27.362,Motor_Task,2023.2.2,Win32,60.79027356,153.5148,153.9657,1,1,0.447799999,,9,9,99,9,1,10,I,,1,,,,,,,
,,,,,,,,,,1,lunar,2024-09-24_15h32.27.362,Motor_Task,2023.2.2,Win32,60.79027356,153.9662,154.4482,2,1,0.4767,,10,0,100,0,1,1,M,,2,,,,,,,
,,,,,,,,,,1,lunar,2024-09-24_15h32.27.362,Motor_Task,2023.2.2,Win32,60.79027356,154.4488,154.8817,3,1,0.4216,,10,1,101,1,1,2,R,,3,,,,,,,
,,,,,,,,,,1,lunar,2024-09-24_15h32.27.362,Motor_Task,2023.2.2,Win32,60.79027356,154.8823,155.415,2,1,0.5218,,10,2,102,2,1,3,M,,2,,,,,,,
,,,,,,,,,,1,lunar,2024-09-24_15h32.27.362,Motor_Task,2023.2.2,Win32,60.79027356,155.4156,155.8815,3,1,0.4529,,10,3,103,3,1,4,R,,3,,,,,,,
,,,,,,,,,,1,lunar,2024-09-24_15h32.27.362,Motor_Task,2023.2.2,Win32,60.79027356,155.882,156.3814,1,1,0.4916,,10,4,104,4,1,5,I,,1,,,,,,,
,,,,,,,,,,1,lunar,2024-09-24_15h32.27.362,Motor_Task,2023.2.2,Win32,60.79027356,156.3817,157.0818,1,1,0.690299999,,10,5,105,5,1,6,I,,1,,,,,,,
,,,,,,,,,,1,lunar,2024-09-24_15h32.27.362,Motor_Task,2023.2.2,Win32,60.79027356,157.0822,157.5651,3,1,0.472,,10,6,106,6,1,7,R,,3,,,,,,,
,,,,,,,,,,1,lunar,2024-09-24_15h32.27.362,Motor_Task,2023.2.2,Win32,60.79027356,157.5654,158.0322,2,1,0.462099999,,10,7,107,7,1,8,M,,2,,,,,,,
,,,,,,,,,,1,lunar,2024-09-24_15h32.27.362,Motor_Task,2023.2.2,Win32,60.79027356,158.0327,158.5319,4,1,0.4915,,10,8,108,8,1,9,L,,4,,,,,,,
,,,,,,,,,,1,lunar,2024-09-24_15h32.27.362,Motor_Task,2023.2.2,Win32,60.79027356,158.533,158.9815,1,1,0.4437,,10,9,109,9,1,10,I,,1,,,,,,,
,,,,,,,,,,1,lunar,2024-09-24_15h32.27.362,Motor_Task,2023.2.2,Win32,60.79027356,158.9819,159.4486,2,1,0.4629,,11,0,110,0,1,1,M,,2,,,,,,,
,,,,,,,,,,1,lunar,2024-09-24_15h32.27.362,Motor_Task,2023.2.2,Win32,60.79027356,159.4491,159.8981,3,1,0.446099999,,11,1,111,1,1,2,R,,3,,,,,,,
,,,,,,,,,,1,lunar,2024-09-24_15h32.27.362,Motor_Task,2023.2.2,Win32,60.79027356,159.8985,160.3655,2,1,0.4571,,11,2,112,2,1,3,M,,2,,,,,,,
,,,,,,,,,,1,lunar,2024-09-24_15h32.27.362,Motor_Task,2023.2.2,Win32,60.79027356,160.366,160.8166,3,1,0.449700001,,11,3,113,3,1,4,R,,3,,,,,,,
,,,,,,,,,,1,lunar,2024-09-24_15h32.27.362,Motor_Task,2023.2.2,Win32,60.79027356,160.817,161.2813,1,1,0.459,,11,4,114,4,1,5,I,,1,,,,,,,
,,,,,,,,,,1,lunar,2024-09-24_15h32.27.362,Motor_Task,2023.2.2,Win32,60.79027356,161.2817,161.7654,1,1,0.4807,,11,5,115,5,1,6,I,,1,,,,,,,
,,,,,,,,,,1,lunar,2024-09-24_15h32.27.362,Motor_Task,2023.2.2,Win32,60.79027356,161.7658,162.3151,3,1,0.544400001,,11,6,116,6,1,7,R,,3,,,,,,,
,,,,,,,,,,1,lunar,2024-09-24_15h32.27.362,Motor_Task,2023.2.2,Win32,60.79027356,162.3156,162.7486,2,1,0.4248,,11,7,117,7,1,8,M,,2,,,,,,,
,,,,,,,,,,1,lunar,2024-09-24_15h32.27.362,Motor_Task,2023.2.2,Win32,60.79027356,162.7491,163.281,4,1,0.5221,,11,8,118,8,1,9,L,,4,,,,,,,
,,,,,,,,,,1,lunar,2024-09-24_15h32.27.362,Motor_Task,2023.2.2,Win32,60.79027356,163.2814,163.7474,1,1,0.463900001,,11,9,119,9,1,10,I,,1,,,,,,,
,,,,,,,,,,1,lunar,2024-09-24_15h32.27.362,Motor_Task,2023.2.2,Win32,60.79027356,163.7477,164.2979,2,1,0.5396,,12,0,120,0,1,1,M,,2,,,,,,,
,,,,,,,,,,1,lunar,2024-09-24_15h32.27.362,Motor_Task,2023.2.2,Win32,60.79027356,164.2983,164.7146,3,1,0.412700001,,12,1,121,1,1,2,R,,3,,,,,,,
,,,,,,,,,,1,lunar,2024-09-24_15h32.27.362,Motor_Task,2023.2.2,Win32,60.79027356,164.715,165.2982,2,1,0.5725,,12,2,122,2,1,3,M,,2,,,,,,,
,,,,,,,,,,1,lunar,2024-09-24_15h32.27.362,Motor_Task,2023.2.2,Win32,60.79027356,165.2986,165.7643,3,1,0.454400001,,12,3,123,3,1,4,R,,3,,,,,,,
,,,,,,,,,,1,lunar,2024-09-24_15h32.27.362,Motor_Task,2023.2.2,Win32,60.79027356,165.7646,166.3153,1,1,0.5414,,12,4,124,4,1,5,I,,1,,,,,,,
,,,,,,,,,,1,lunar,2024-09-24_15h32.27.362,Motor_Task,2023.2.2,Win32,60.79027356,166.3159,166.8644,1,1,0.5386,,12,5,125,5,1,6,I,,1,,,,,,,
,,,,,,,,,,1,lunar,2024-09-24_15h32.27.362,Motor_Task,2023.2.2,Win32,60.79027356,166.8647,167.3822,3,1,0.5042,,12,6,126,6,1,7,R,,3,,,,,,,
,,,,,,,,,,1,lunar,2024-09-24_15h32.27.362,Motor_Task,2023.2.2,Win32,60.79027356,167.383,167.8314,2,1,0.4454,,12,7,127,7,1,8,M,,2,,,,,,,
,,,,,,,,,,1,lunar,2024-09-24_15h32.27.362,Motor_Task,2023.2.2,Win32,60.79027356,167.8319,168.3813,4,1,0.5419,,12,8,128,8,1,9,L,,4,,,,,,,
,,,,,,,,,,1,lunar,2024-09-24_15h32.27.362,Motor_Task,2023.2.2,Win32,60.79027356,168.3818,168.8316,1,1,0.438599999,,12,9,129,9,1,10,I,,1,,,,,,,
,,,,,,,,,,1,lunar,2024-09-24_15h32.27.362,Motor_Task,2023.2.2,Win32,60.79027356,168.8321,169.3154,2,1,0.4826,,13,0,130,0,1,1,M,,2,,,,,,,
,,,,,,,,,,1,lunar,2024-09-24_15h32.27.362,Motor_Task,2023.2.2,Win32,60.79027356,169.3157,169.748,3,1,0.4223,,13,1,131,1,1,2,R,,3,,,,,,,
,,,,,,,,,,1,lunar,2024-09-24_15h32.27.362,Motor_Task,2023.2.2,Win32,60.79027356,169.7487,170.2155,2,1,0.454900001,,13,2,132,2,1,3,M,,2,,,,,,,
,,,,,,,,,,1,lunar,2024-09-24_15h32.27.362,Motor_Task,2023.2.2,Win32,60.79027356,170.2162,170.7474,3,1,0.5199,,13,3,133,3,1,4,R,,3,,,,,,,
,,,,,,,,,,1,lunar,2024-09-24_15h32.27.362,Motor_Task,2023.2.2,Win32,60.79027356,170.7478,171.2645,1,1,0.5059,,13,4,134,4,1,5,I,,1,,,,,,,
,,,,,,,,,,1,lunar,2024-09-24_15h32.27.362,Motor_Task,2023.2.2,Win32,60.79027356,171.2649,171.7648,1,1,0.4932,,13,5,135,5,1,6,I,,1,,,,,,,
,,,,,,,,,,1,lunar,2024-09-24_15h32.27.362,Motor_Task,2023.2.2,Win32,60.79027356,171.7653,172.2647,3,1,0.4937,,13,6,136,6,1,7,R,,3,,,,,,,
,,,,,,,,,,1,lunar,2024-09-24_15h32.27.362,Motor_Task,2023.2.2,Win32,60.79027356,172.2653,172.7475,2,1,0.4731,,13,7,137,7,1,8,M,,2,,,,,,,
,,,,,,,,,,1,lunar,2024-09-24_15h32.27.362,Motor_Task,2023.2.2,Win32,60.79027356,172.748,173.2805,4,1,0.529799999,,13,8,138,8,1,9,L,,4,,,,,,,
,,,,,,,,,,1,lunar,2024-09-24_15h32.27.362,Motor_Task,2023.2.2,Win32,60.79027356,173.2809,173.698,1,1,0.4068,,13,9,139,9,1,10,I,,1,,,,,,,
,,,,,,,,,,1,lunar,2024-09-24_15h32.27.362,Motor_Task,2023.2.2,Win32,60.79027356,173.6989,174.1978,2,1,0.4875,,14,0,140,0,1,1,M,,2,,,,,,,
,,,,,,,,,,1,lunar,2024-09-24_15h32.27.362,Motor_Task,2023.2.2,Win32,60.79027356,174.1984,174.6307,3,1,0.4227,,14,1,141,1,1,2,R,,3,,,,,,,
,,,,,,,,,,1,lunar,2024-09-24_15h32.27.362,Motor_Task,2023.2.2,Win32,60.79027356,174.6313,175.0808,2,1,0.440599999,,14,2,142,2,1,3,M,,2,,,,,,,
,,,,,,,,,,1,lunar,2024-09-24_15h32.27.362,Motor_Task,2023.2.2,Win32,60.79027356,175.0813,175.8971,3,1,0.8098,,14,3,143,3,1,4,R,,3,,,,,,,
,,,,,,,,,,1,lunar,2024-09-24_15h32.27.362,Motor_Task,2023.2.2,Win32,60.79027356,175.8975,176.3976,1,1,0.4968,,14,4,144,4,1,5,I,,1,,,,,,,
,,,,,,,,,,1,lunar,2024-09-24_15h32.27.362,Motor_Task,2023.2.2,Win32,60.79027356,176.3982,176.9305,1,1,0.5217,,14,5,145,5,1,6,I,,1,,,,,,,
,,,,,,,,,,1,lunar,2024-09-24_15h32.27.362,Motor_Task,2023.2.2,Win32,60.79027356,176.931,177.4812,3,1,0.5395,,14,6,146,6,1,7,R,,3,,,,,,,
,,,,,,,,,,1,lunar,2024-09-24_15h32.27.362,Motor_Task,2023.2.2,Win32,60.79027356,177.4818,177.9313,2,1,0.4385,,14,7,147,7,1,8,M,,2,,,,,,,
,,,,,,,,,,1,lunar,2024-09-24_15h32.27.362,Motor_Task,2023.2.2,Win32,60.79027356,177.9317,178.4475,4,1,0.5038,,14,8,148,8,1,9,L,,4,,,,,,,
,,,,,,,,,,1,lunar,2024-09-24_15h32.27.362,Motor_Task,2023.2.2,Win32,60.79027356,178.4479,178.8978,1,1,0.4378,,14,9,149,9,1,10,I,,1,,,,,,,
,,,,,,,,,,1,lunar,2024-09-24_15h32.27.362,Motor_Task,2023.2.2,Win32,60.79027356,178.8984,179.3473,2,1,0.4428,,15,0,150,0,1,1,M,,2,,,,,,,
,,,,,,,,,,1,lunar,2024-09-24_15h32.27.362,Motor_Task,2023.2.2,Win32,60.79027356,179.3476,179.8154,3,1,0.467,,15,1,151,1,1,2,R,,3,,,,,,,
,,,,,,,,,,1,lunar,2024-09-24_15h32.27.362,Motor_Task,2023.2.2,Win32,60.79027356,179.8157,180.2645,2,1,0.448,,15,2,152,2,1,3,M,,2,,,,,,,
,,,,,,,,,,1,lunar,2024-09-24_15h32.27.362,Motor_Task,2023.2.2,Win32,60.79027356,180.2647,180.7307,3,1,0.462599999,,15,3,153,3,1,4,R,,3,,,,,,,
,,,,,,,,,,1,lunar,2024-09-24_15h32.27.362,Motor_Task,2023.2.2,Win32,60.79027356,180.7312,181.2469,1,1,0.513099999,,15,4,154,4,1,5,I,,1,,,,,,,
,,,,,,,,,,1,lunar,2024-09-24_15h32.27.362,Motor_Task,2023.2.2,Win32,60.79027356,181.2476,181.7808,1,1,0.5217,,15,5,155,5,1,6,I,,1,,,,,,,
,,,,,,,,,,1,lunar,2024-09-24_15h32.27.362,Motor_Task,2023.2.2,Win32,60.79027356,181.7815,182.3307,3,1,0.537200001,,15,6,156,6,1,7,R,,3,,,,,,,
,,,,,,,,,,1,lunar,2024-09-24_15h32.27.362,Motor_Task,2023.2.2,Win32,60.79027356,182.3313,182.7812,2,1,0.4437,,15,7,157,7,1,8,M,,2,,,,,,,
,,,,,,,,,,1,lunar,2024-09-24_15h32.27.362,Motor_Task,2023.2.2,Win32,60.79027356,182.7817,183.3974,4,1,0.611099999,,15,8,158,8,1,9,L,,4,,,,,,,
,,,,,,,,,,1,lunar,2024-09-24_15h32.27.362,Motor_Task,2023.2.2,Win32,60.79027356,183.3978,183.8635,1,1,0.455599999,,15,9,159,9,1,10,I,,1,,,,,,,
,,,,,,,,,,1,lunar,2024-09-24_15h32.27.362,Motor_Task,2023.2.2,Win32,60.79027356,183.8639,184.3309,2,1,0.455099999,,16,0,160,0,1,1,M,,2,,,,,,,
,,,,,,,,,,1,lunar,2024-09-24_15h32.27.362,Motor_Task,2023.2.2,Win32,60.79027356,184.3314,184.8302,3,1,0.4861,,16,1,161,1,1,2,R,,3,,,,,,,
,,,,,,,,,,1,lunar,2024-09-24_15h32.27.362,Motor_Task,2023.2.2,Win32,60.79027356,184.8307,185.2817,2,1,0.450099999,,16,2,162,2,1,3,M,,2,,,,,,,
,,,,,,,,,,1,lunar,2024-09-24_15h32.27.362,Motor_Task,2023.2.2,Win32,60.79027356,185.2821,185.7466,3,1,0.4632,,16,3,163,3,1,4,R,,3,,,,,,,
,,,,,,,,,,1,lunar,2024-09-24_15h32.27.362,Motor_Task,2023.2.2,Win32,60.79027356,185.7471,186.2302,1,1,0.4796,,16,4,164,4,1,5,I,,1,,,,,,,
,,,,,,,,,,1,lunar,2024-09-24_15h32.27.362,Motor_Task,2023.2.2,Win32,60.79027356,186.231,186.7962,1,1,0.5635,,16,5,165,5,1,6,I,,1,,,,,,,
,,,,,,,,,,1,lunar,2024-09-24_15h32.27.362,Motor_Task,2023.2.2,Win32,60.79027356,186.7965,187.2798,3,1,0.4815,,16,6,166,6,1,7,R,,3,,,,,,,
,,,,,,,,,,1,lunar,2024-09-24_15h32.27.362,Motor_Task,2023.2.2,Win32,60.79027356,187.2805,187.7638,2,1,0.472900001,,16,7,167,7,1,8,M,,2,,,,,,,
,,,,,,,,,,1,lunar,2024-09-24_15h32.27.362,Motor_Task,2023.2.2,Win32,60.79027356,187.7648,188.3467,4,1,0.5739,,16,8,168,8,1,9,L,,4,,,,,,,
,,,,,,,,,,1,lunar,2024-09-24_15h32.27.362,Motor_Task,2023.2.2,Win32,60.79027356,188.3477,188.7964,1,1,0.4447,,16,9,169,9,1,10,I,,1,,,,,,,
,,,,,,,,,,1,lunar,2024-09-24_15h32.27.362,Motor_Task,2023.2.2,Win32,60.79027356,188.7968,189.2472,2,1,0.4417,,17,0,170,0,1,1,M,,2,,,,,,,
,,,,,,,,,,1,lunar,2024-09-24_15h32.27.362,Motor_Task,2023.2.2,Win32,60.79027356,189.2479,189.7467,3,1,0.4881,,17,1,171,1,1,2,R,,3,,,,,,,
,,,,,,,,,,1,lunar,2024-09-24_15h32.27.362,Motor_Task,2023.2.2,Win32,60.79027356,189.7472,190.2138,2,1,0.4547,,17,2,172,2,1,3,M,,2,,,,,,,
,,,,,,,,,,1,lunar,2024-09-24_15h32.27.362,Motor_Task,2023.2.2,Win32,60.79027356,190.2145,190.7126,3,1,0.494,,17,3,173,3,1,4,R,,3,,,,,,,
,,,,,,,,,,1,lunar,2024-09-24_15h32.27.362,Motor_Task,2023.2.2,Win32,60.79027356,190.7128,191.2294,1,1,0.515400001,,17,4,174,4,1,5,I,,1,,,,,,,
,,,,,,,,,,1,lunar,2024-09-24_15h32.27.362,Motor_Task,2023.2.2,Win32,60.79027356,191.2296,191.7144,1,1,0.4735,,17,5,175,5,1,6,I,,1,,,,,,,
,,,,,,,,,,1,lunar,2024-09-24_15h32.27.362,Motor_Task,2023.2.2,Win32,60.79027356,191.7155,192.2633,3,1,0.538700001,,17,6,176,6,1,7,R,,3,,,,,,,
,,,,,,,,,,1,lunar,2024-09-24_15h32.27.362,Motor_Task,2023.2.2,Win32,60.79027356,192.2638,192.68,2,1,0.4095,,17,7,177,7,1,8,M,,2,,,,,,,
,,,,,,,,,,1,lunar,2024-09-24_15h32.27.362,Motor_Task,2023.2.2,Win32,60.79027356,192.6804,193.2296,4,1,0.5385,,17,8,178,8,1,9,L,,4,,,,,,,
,,,,,,,,,,1,lunar,2024-09-24_15h32.27.362,Motor_Task,2023.2.2,Win32,60.79027356,193.2302,193.6627,1,1,0.4297,,17,9,179,9,1,10,I,,1,,,,,,,
,,,,,,,,,,1,lunar,2024-09-24_15h32.27.362,Motor_Task,2023.2.2,Win32,60.79027356,193.6631,194.1303,2,1,0.4668,,18,0,180,0,1,1,M,,2,,,,,,,
,,,,,,,,,,1,lunar,2024-09-24_15h32.27.362,Motor_Task,2023.2.2,Win32,60.79027356,194.1308,194.5971,3,1,0.4658,,18,1,181,1,1,2,R,,3,,,,,,,
,,,,,,,,,,1,lunar,2024-09-24_15h32.27.362,Motor_Task,2023.2.2,Win32,60.79027356,194.5974,195.0631,2,1,0.4563,,18,2,182,2,1,3,M,,2,,,,,,,
,,,,,,,,,,1,lunar,2024-09-24_15h32.27.362,Motor_Task,2023.2.2,Win32,60.79027356,195.0637,195.5302,3,1,0.4557,,18,3,183,3,1,4,R,,3,,,,,,,
,,,,,,,,,,1,lunar,2024-09-24_15h32.27.362,Motor_Task,2023.2.2,Win32,60.79027356,195.5312,196.0958,1,1,0.5633,,18,4,184,4,1,5,I,,1,,,,,,,
,,,,,,,,,,1,lunar,2024-09-24_15h32.27.362,Motor_Task,2023.2.2,Win32,60.79027356,196.0961,196.596,1,1,0.489099999,,18,5,185,5,1,6,I,,1,,,,,,,
,,,,,,,,,,1,lunar,2024-09-24_15h32.27.362,Motor_Task,2023.2.2,Win32,60.79027356,196.5967,197.0807,3,1,0.4835,,18,6,186,6,1,7,R,,3,,,,,,,
,,,,,,,,,,1,lunar,2024-09-24_15h32.27.362,Motor_Task,2023.2.2,Win32,60.79027356,197.0812,197.5459,2,1,0.4576,,18,7,187,7,1,8,M,,2,,,,,,,
,,,,,,,,,,1,lunar,2024-09-24_15h32.27.362,Motor_Task,2023.2.2,Win32,60.79027356,197.5463,198.046,4,1,0.496,,18,8,188,8,1,9,L,,4,,,,,,,
,,,,,,,,,,1,lunar,2024-09-24_15h32.27.362,Motor_Task,2023.2.2,Win32,60.79027356,198.0462,198.4792,1,1,0.4225,,18,9,189,9,1,10,I,,1,,,,,,,
,,,,,,,,,,1,lunar,2024-09-24_15h32.27.362,Motor_Task,2023.2.2,Win32,60.79027356,198.4797,199.0457,2,1,0.555400001,,19,0,190,0,1,1,M,,2,,,,,,,
,,,,,,,,,,1,lunar,2024-09-24_15h32.27.362,Motor_Task,2023.2.2,Win32,60.79027356,199.046,199.5134,3,1,0.456200001,,19,1,191,1,1,2,R,,3,,,,,,,
,,,,,,,,,,1,lunar,2024-09-24_15h32.27.362,Motor_Task,2023.2.2,Win32,60.79027356,199.514,200.1964,2,1,0.6719,,19,2,192,2,1,3,M,,2,,,,,,,
,,,,,,,,,,1,lunar,2024-09-24_15h32.27.362,Motor_Task,2023.2.2,Win32,60.79027356,200.197,200.6291,3,1,0.4282,,19,3,193,3,1,4,R,,3,,,,,,,
,,,,,,,,,,1,lunar,2024-09-24_15h32.27.362,Motor_Task,2023.2.2,Win32,60.79027356,200.6295,201.0642,1,1,0.434,,19,4,194,4,1,5,I,,1,,,,,,,
,,,,,,,,,,1,lunar,2024-09-24_15h32.27.362,Motor_Task,2023.2.2,Win32,60.79027356,201.0646,201.5794,1,1,0.5075,,19,5,195,5,1,6,I,,1,,,,,,,
,,,,,,,,,,1,lunar,2024-09-24_15h32.27.362,Motor_Task,2023.2.2,Win32,60.79027356,201.5798,202.0801,3,1,0.489099999,,19,6,196,6,1,7,R,,3,,,,,,,
,,,,,,,,,,1,lunar,2024-09-24_15h32.27.362,Motor_Task,2023.2.2,Win32,60.79027356,202.0806,202.5295,2,1,0.4421,,19,7,197,7,1,8,M,,2,,,,,,,
,,,,,,,,,,1,lunar,2024-09-24_15h32.27.362,Motor_Task,2023.2.2,Win32,60.79027356,202.5298,203.0458,4,1,0.504400001,,19,8,198,8,1,9,L,,4,,,,,,,
,,,,,,,,,,1,lunar,2024-09-24_15h32.27.362,Motor_Task,2023.2.2,Win32,60.79027356,203.0462,203.5624,1,1,0.5043,,19,9,199,9,1,10,I,,1,,,,,,,
,,,,,,,,,,1,lunar,2024-09-24_15h32.27.362,Motor_Task,2023.2.2,Win32,60.79027356,203.5734,204.1463,3,1,0.5627,,,,,,,2,R,,3,0,0,0,1,1,,
,,,,,,,,,,1,lunar,2024-09-24_15h32.27.362,Motor_Task,2023.2.2,Win32,60.79027356,204.1473,204.6465,2,1,0.4888,,,,,,,8,M,,2,0,1,1,7,1,,
,,,,,,,,,,1,lunar,2024-09-24_15h32.27.362,Motor_Task,2023.2.2,Win32,60.79027356,204.6469,205.2126,2,1,0.5601,,,,,,,3,M,,2,0,2,2,2,1,,
,,,,,,,,,,1,lunar,2024-09-24_15h32.27.362,Motor_Task,2023.2.2,Win32,60.79027356,205.213,205.679,3,1,0.458,,,,,,,4,R,,3,0,3,3,3,1,,
,,,,,,,,,,1,lunar,2024-09-24_15h32.27.362,Motor_Task,2023.2.2,Win32,60.79027356,205.6796,206.1955,2,1,0.5049,,,,,,,1,M,,2,0,4,4,0,1,,
,,,,,,,,,,1,lunar,2024-09-24_15h32.27.362,Motor_Task,2023.2.2,Win32,60.79027356,206.196,206.7625,1,1,0.554200001,,,,,,,10,I,,1,0,5,5,9,1,,
,,,,,,,,,,1,lunar,2024-09-24_15h32.27.362,Motor_Task,2023.2.2,Win32,60.79027356,206.7632,207.3627,3,1,0.5899,,,,,,,7,R,,3,0,6,6,6,1,,
,,,,,,,,,,1,lunar,2024-09-24_15h32.27.362,Motor_Task,2023.2.2,Win32,60.79027356,207.3633,207.9454,4,1,0.5718,,,,,,,9,L,,4,0,7,7,8,1,,
,,,,,,,,,,1,lunar,2024-09-24_15h32.27.362,Motor_Task,2023.2.2,Win32,60.79027356,207.9458,208.3789,1,1,0.4305,,,,,,,5,I,,1,0,8,8,4,1,,
,,,,,,,,,,1,lunar,2024-09-24_15h32.27.362,Motor_Task,2023.2.2,Win32,60.79027356,208.3792,208.9306,1,1,0.550400001,,,,,,,6,I,,1,0,9,9,5,1,,
,,,,,,,,,,1,lunar,2024-09-24_15h32.27.362,Motor_Task,2023.2.2,Win32,60.79027356,208.931,209.446,3,1,0.5036,,,,,,,4,R,,3,1,0,10,3,1,,
,,,,,,,,,,1,lunar,2024-09-24_15h32.27.362,Motor_Task,2023.2.2,Win32,60.79027356,209.4464,209.8797,2,1,0.4321,,,,,,,8,M,,2,1,1,11,7,1,,
,,,,,,,,,,1,lunar,2024-09-24_15h32.27.362,Motor_Task,2023.2.2,Win32,60.79027356,209.8801,210.3958,4,1,0.5048,,,,,,,9,L,,4,1,2,12,8,1,,
,,,,,,,,,,1,lunar,2024-09-24_15h32.27.362,Motor_Task,2023.2.2,Win32,60.79027356,210.3966,210.9792,2,1,0.571599999,,,,,,,1,M,,2,1,3,13,0,1,,
,,,,,,,,,,1,lunar,2024-09-24_15h32.27.362,Motor_Task,2023.2.2,Win32,60.79027356,210.9796,211.5623,3,1,0.5705,,,,,,,2,R,,3,1,4,14,1,1,,
,,,,,,,,,,1,lunar,2024-09-24_15h32.27.362,Motor_Task,2023.2.2,Win32,60.79027356,211.5627,212.1289,3,1,0.555400001,,,,,,,7,R,,3,1,5,15,6,1,,
,,,,,,,,,,1,lunar,2024-09-24_15h32.27.362,Motor_Task,2023.2.2,Win32,60.79027356,212.1295,212.7453,1,1,0.610900001,,,,,,,10,I,,1,1,6,16,9,1,,
,,,,,,,,,,1,lunar,2024-09-24_15h32.27.362,Motor_Task,2023.2.2,Win32,60.79027356,212.7456,213.2129,2,1,0.4665,,,,,,,3,M,,2,1,7,17,2,1,,
,,,,,,,,,,1,lunar,2024-09-24_15h32.27.362,Motor_Task,2023.2.2,Win32,60.79027356,213.2133,213.7285,1,1,0.503900001,,,,,,,5,I,,1,1,8,18,4,1,,
,,,,,,,,,,1,lunar,2024-09-24_15h32.27.362,Motor_Task,2023.2.2,Win32,60.79027356,213.7288,214.2456,1,1,0.5065,,,,,,,6,I,,1,1,9,19,5,1,,
,,,,,,,,,,1,lunar,2024-09-24_15h32.27.362,Motor_Task,2023.2.2,Win32,60.79027356,214.2462,214.7449,3,1,0.4899,,,,,,,4,R,,3,2,0,20,3,1,,
,,,,,,,,,,1,lunar,2024-09-24_15h32.27.362,Motor_Task,2023.2.2,Win32,60.79027356,214.7455,215.2458,2,1,0.4882,,,,,,,1,M,,2,2,1,21,0,1,,
,,,,,,,,,,1,lunar,2024-09-24_15h32.27.362,Motor_Task,2023.2.2,Win32,60.79027356,215.2467,215.7788,1,1,0.52,,,,,,,6,I,,1,2,2,22,5,1,,
,,,,,,,,,,1,lunar,2024-09-24_15h32.27.362,Motor_Task,2023.2.2,Win32,60.79027356,215.7793,216.2811,1,1,0.500900001,,,,,,,10,I,,1,2,3,23,9,1,,
,,,,,,,,,,1,lunar,2024-09-24_15h32.27.362,Motor_Task,2023.2.2,Win32,60.79027356,216.2816,216.7977,3,1,0.5153,,,,,,,7,R,,3,2,4,24,6,1,,
,,,,,,,,,,1,lunar,2024-09-24_15h32.27.362,Motor_Task,2023.2.2,Win32,60.79027356,216.7985,217.3285,3,1,0.5266,,,,,,,2,R,,3,2,5,25,1,1,,
,,,,,,,,,,1,lunar,2024-09-24_15h32.27.362,Motor_Task,2023.2.2,Win32,60.79027356,217.3291,217.8117,3,0,0.4804,,,,,,,3,M,,2,2,6,26,2,1,,
,,,,,,,,,,1,lunar,2024-09-24_15h32.27.362,Motor_Task,2023.2.2,Win32,60.79027356,217.8121,218.4787,4,1,0.6562,,,,,,,9,L,,4,2,7,27,8,1,,
,,,,,,,,,,1,lunar,2024-09-24_15h32.27.362,Motor_Task,2023.2.2,Win32,60.79027356,218.4792,219.0114,2,1,0.5248,,,,,,,8,M,,2,2,8,28,7,1,,
,,,,,,,,,,1,lunar,2024-09-24_15h32.27.362,Motor_Task,2023.2.2,Win32,60.79027356,219.0119,219.5958,1,1,0.583200001,,,,,,,5,I,,1,2,9,29,4,1,,
,,,,,,,,,,1,lunar,2024-09-24_15h32.27.362,Motor_Task,2023.2.2,Win32,60.79027356,219.5962,220.1953,3,1,0.591299999,,,,,,,2,R,,3,3,0,30,1,1,,
,,,,,,,,,,1,lunar,2024-09-24_15h32.27.362,Motor_Task,2023.2.2,Win32,60.79027356,220.1956,220.6615,2,1,0.4638,,,,,,,1,M,,2,3,1,31,0,1,,
,,,,,,,,,,1,lunar,2024-09-24_15h32.27.362,Motor_Task,2023.2.2,Win32,60.79027356,220.6621,221.1613,3,1,0.486900001,,,,,,,4,R,,3,3,2,32,3,1,,
,,,,,,,,,,1,lunar,2024-09-24_15h32.27.362,Motor_Task,2023.2.2,Win32,60.79027356,221.1618,221.8614,2,1,0.6974,,,,,,,8,M,,2,3,3,33,7,1,,
,,,,,,,,,,1,lunar,2024-09-24_15h32.27.362,Motor_Task,2023.2.2,Win32,60.79027356,221.8617,222.3953,2,1,0.5275,,,,,,,3,M,,2,3,4,34,2,1,,
,,,,,,,,,,1,lunar,2024-09-24_15h32.27.362,Motor_Task,2023.2.2,Win32,60.79027356,222.3958,222.9614,1,1,0.5555,,,,,,,10,I,,1,3,5,35,9,1,,
,,,,,,,,,,1,lunar,2024-09-24_15h32.27.362,Motor_Task,2023.2.2,Win32,60.79027356,222.9619,223.5956,3,1,0.6328,,,,,,,7,R,,3,3,6,36,6,1,,
,,,,,,,,,,1,lunar,2024-09-24_15h32.27.362,Motor_Task,2023.2.2,Win32,60.79027356,223.5961,224.1611,1,1,0.555099999,,,,,,,6,I,,1,3,7,37,5,1,,
,,,,,,,,,,1,lunar,2024-09-24_15h32.27.362,Motor_Task,2023.2.2,Win32,60.79027356,224.1617,224.6775,1,1,0.5086,,,,,,,5,I,,1,3,8,38,4,1,,
,,,,,,,,,,1,lunar,2024-09-24_15h32.27.362,Motor_Task,2023.2.2,Win32,60.79027356,224.6778,225.4131,4,1,0.734400001,,,,,,,9,L,,4,3,9,39,8,1,,
,,,,,,,,,,1,lunar,2024-09-24_15h32.27.362,Motor_Task,2023.2.2,Win32,60.79027356,225.4136,226.0277,3,1,0.6033,,,,,,,7,R,,3,4,0,40,6,1,,
,,,,,,,,,,1,lunar,2024-09-24_15h32.27.362,Motor_Task,2023.2.2,Win32,60.79027356,226.0283,226.561,1,1,0.5257,,,,,,,10,I,,1,4,1,41,9,1,,
,,,,,,,,,,1,lunar,2024-09-24_15h32.27.362,Motor_Task,2023.2.2,Win32,60.79027356,226.5615,227.2294,4,1,0.667200001,,,,,,,9,L,,4,4,2,42,8,1,,
,,,,,,,,,,1,lunar,2024-09-24_15h32.27.362,Motor_Task,2023.2.2,Win32,60.79027356,227.2299,227.8453,2,1,0.6044,,,,,,,1,M,,2,4,3,43,0,1,,
,,,,,,,,,,1,lunar,2024-09-24_15h32.27.362,Motor_Task,2023.2.2,Win32,60.79027356,227.846,228.4275,1,1,0.5796,,,,,,,6,I,,1,4,4,44,5,1,,
,,,,,,,,,,1,lunar,2024-09-24_15h32.27.362,Motor_Task,2023.2.2,Win32,60.79027356,228.4279,228.8946,2,1,0.457900001,,,,,,,8,M,,2,4,5,45,7,1,,
,,,,,,,,,,1,lunar,2024-09-24_15h32.27.362,Motor_Task,2023.2.2,Win32,60.79027356,228.895,229.3953,3,1,0.4993,,,,,,,2,R,,3,4,6,46,1,1,,
,,,,,,,,,,1,lunar,2024-09-24_15h32.27.362,Motor_Task,2023.2.2,Win32,60.79027356,229.3957,229.9113,2,1,0.5112,,,,,,,3,M,,2,4,7,47,2,1,,
,,,,,,,,,,1,lunar,2024-09-24_15h32.27.362,Motor_Task,2023.2.2,Win32,60.79027356,229.9118,230.4285,1,1,0.5158,,,,,,,5,I,,1,4,8,48,4,1,,
,,,,,,,,,,1,lunar,2024-09-24_15h32.27.362,Motor_Task,2023.2.2,Win32,60.79027356,230.4289,231.0109,3,1,0.5725,,,,,,,4,R,,3,4,9,49,3,1,,
,,,,,,,,,,1,lunar,2024-09-24_15h32.27.362,Motor_Task,2023.2.2,Win32,60.79027356,,,,,,,,,,,,,,,,,,,,,231.0117,235.0149