Trigger.started,Trigger.stopped,key_resp_4.keys,mouse.x,mouse.y,mouse.leftButton,mouse.midButton,mouse.rightButton,Session,Subject,date,expName,psychopyVersion,OS,frameRate,complex_block.started,complex_block.stopped,key_resp.keys,key_resp.corr,key_resp.rt,key_resp.duration,complex_block_loop.thisRepN,complex_block_loop.thisTrialN,complex_block_loop.thisN,complex_block_loop.thisIndex,complex_block_loop.ran,trial,finger,markerPos,correctResp,new_block_loop.thisRepN,new_block_loop.thisTrialN,new_block_loop.thisN,new_block_loop.thisIndex,new_block_loop.ran,endBuffer.started,endBuffer.stopped
0.0003,3.3032,,-0.054342109,-0.069903022,1,0,0,1,,2024-09-24_15h36.12.728,Motor_Task,2023.2.2,MacIntel,59.88023952,,,,,,,,,,,,,,,,,,,,,,
,,,,,,,,1,,2024-09-24_15h36.12.728,Motor_Task,2023.2.2,MacIntel,59.88023952,3.3262,12.2868,2,1,8.9573,,0,0,0,0,1,1,M,,2,,,,,,,
,,,,,,,,1,,2024-09-24_15h36.12.728,Motor_Task,2023.2.2,MacIntel,59.88023952,12.2871,13.2194,3,1,0.9252,,0,1,1,1,1,2,R,,3,,,,,,,
,,,,,,,,1,,2024-09-24_15h36.12.728,Motor_Task,2023.2.2,MacIntel,59.88023952,13.2196,14.1691,2,1,0.9489,,0,2,2,2,1,3,M,,2,,,,,,,
,,,,,,,,1,,2024-09-24_15h36.12.728,Motor_Task,2023.2.2,MacIntel,59.88023952,14.1694,16.5858,3,1,2.4131,,0,3,3,3,1,4,R,,3,,,,,,,
,,,,,,,,1,,2024-09-24_15h36.12.728,Motor_Task,2023.2.2,MacIntel,59.88023952,16.586,17.4365,1,1,0.8473,,0,4,4,4,1,5,I,,1,,,,,,,
,,,,,,,,1,,2024-09-24_15h36.12.728,Motor_Task,2023.2.2,MacIntel,59.88023952,17.4367,18.07,1,1,0.6225,,0,5,5,5,1,6,I,,1,,,,,,,
,,,,,,,,1,,2024-09-24_15h36.12.728,Motor_Task,2023.2.2,MacIntel,59.88023952,18.0702,18.8196,3,1,0.7386,,0,6,6,6,1,7,R,,3,,,,,,,
,,,,,,,,1,,2024-09-24_15h36.12.728,Motor_Task,2023.2.2,MacIntel,59.88023952,18.8198,20.2858,2,1,1.4644,,0,7,7,7,1,8,M,,2,,,,,,,
,,,,,,,,1,,2024-09-24_15h36.12.728,Motor_Task,2023.2.2,MacIntel,59.88023952,20.2859,21.1694,3,0,0.8765,,0,8,8,8,1,9,L,,4,,,,,,,
,,,,,,,,1,,2024-09-24_15h36.12.728,Motor_Task,2023.2.2,MacIntel,59.88023952,21.1696,21.9525,1,1,0.7808,,0,9,9,9,1,10,I,,1,,,,,,,
,,,,,,,,1,,2024-09-24_15h36.12.728,Motor_Task,2023.2.2,MacIntel,59.88023952,21.9527,22.6364,2,1,0.682,,1,0,10,0,1,1,M,,2,,,,,,,
,,,,,,,,1,,2024-09-24_15h36.12.728,Motor_Task,2023.2.2,MacIntel,59.88023952,22.6366,23.2525,3,1,0.6089,,1,1,11,1,1,2,R,,3,,,,,,,
,,,,,,,,1,,2024-09-24_15h36.12.728,Motor_Task,2023.2.2,MacIntel,59.88023952,23.2526,24.0527,2,1,0.7942,,1,2,12,2,1,3,M,,2,,,,,,,
,,,,,,,,1,,2024-09-24_15h36.12.728,Motor_Task,2023.2.2,MacIntel,59.88023952,24.0529,24.8522,3,1,0.7927,,1,3,13,3,1,4,R,,3,,,,,,,
,,,,,,,,1,,2024-09-24_15h36.12.728,Motor_Task,2023.2.2,MacIntel,59.88023952,24.8526,25.5194,1,1,0.6565,,1,4,14,4,1,5,I,,1,,,,,,,
,,,,,,,,1,,2024-09-24_15h36.12.728,Motor_Task,2023.2.2,MacIntel,59.88023952,25.5196,26.2022,1,1,0.6765,,1,5,15,5,1,6,I,,1,,,,,,,
,,,,,,,,1,,2024-09-24_15h36.12.728,Motor_Task,2023.2.2,MacIntel,59.88023952,26.2024,27.1354,3,1,0.932,,1,6,16,6,1,7,R,,3,,,,,,,
,,,,,,,,1,,2024-09-24_15h36.12.728,Motor_Task,2023.2.2,MacIntel,59.88023952,27.1356,28.0524,2,1,0.9106,,1,7,17,7,1,8,M,,2,,,,,,,
,,,,,,,,1,,2024-09-24_15h36.12.728,Motor_Task,2023.2.2,MacIntel,59.88023952,28.0526,28.8188,3,0,0.7628,,1,8,18,8,1,9,L,,4,,,,,,,
,,,,,,,,1,,2024-09-24_15h36.12.728,Motor_Task,2023.2.2,MacIntel,59.88023952,28.819,29.5525,1,1,0.7231,,1,9,19,9,1,10,I,,1,,,,,,,
,,,,,,,,1,,2024-09-24_15h36.12.728,Motor_Task,2023.2.2,MacIntel,59.88023952,29.5528,30.1021,2,1,0.5388,,2,0,20,0,1,1,M,,2,,,,,,,
,,,,,,,,1,,2024-09-24_15h36.12.728,Motor_Task,2023.2.2,MacIntel,59.88023952,30.1024,31.3193,3,1,1.2087,,2,1,21,1,1,2,R,,3,,,,,,,
,,,,,,,,1,,2024-09-24_15h36.12.728,Motor_Task,2023.2.2,MacIntel,59.88023952,31.3196,33.6853,2,1,2.3583,,2,2,22,2,1,3,M,,2,,,,,,,
,,,,,,,,1,,2024-09-24_15h36.12.728,Motor_Task,2023.2.2,MacIntel,59.88023952,33.6855,34.3856,3,1,0.6988,,2,3,23,3,1,4,R,,3,,,,,,,
,,,,,,,,1,,2024-09-24_15h36.12.728,Motor_Task,2023.2.2,MacIntel,59.88023952,34.3858,35.2358,1,1,0.8394,,2,4,24,4,1,5,I,,1,,,,,,,
,,,,,,,,1,,2024-09-24_15h36.12.728,Motor_Task,2023.2.2,MacIntel,59.88023952,35.2361,35.8188,1,1,0.5716,,2,5,25,5,1,6,I,,1,,,,,,,
,,,,,,,,1,,2024-09-24_15h36.12.728,Motor_Task,2023.2.2,MacIntel,59.88023952,35.8191,36.4856,3,1,0.6614,,2,6,26,6,1,7,R,,3,,,,,,,
,,,,,,,,1,,2024-09-24_15h36.12.728,Motor_Task,2023.2.2,MacIntel,59.88023952,36.4858,37.2028,2,1,0.7144,,2,7,27,7,1,8,M,,2,,,,,,,
,,,,,,,,1,,2024-09-24_15h36.12.728,Motor_Task,2023.2.2,MacIntel,59.88023952,37.203,38.0522,3,0,0.8468,,2,8,28,8,1,9,L,,4,,,,,,,
,,,,,,,,1,,2024-09-24_15h36.12.728,Motor_Task,2023.2.2,MacIntel,59.88023952,38.0524,39.6353,1,1,1.5759,,2,9,29,9,1,10,I,,1,,,,,,,
,,,,,,,,1,,2024-09-24_15h36.12.728,Motor_Task,2023.2.2,MacIntel,59.88023952,39.6355,40.5688,2,1,0.927,,3,0,30,0,1,1,M,,2,,,,,,,
,,,,,,,,1,,2024-09-24_15h36.12.728,Motor_Task,2023.2.2,MacIntel,59.88023952,40.569,41.9187,3,1,1.3457,,3,1,31,1,1,2,R,,3,,,,,,,
,,,,,,,,1,,2024-09-24_15h36.12.728,Motor_Task,2023.2.2,MacIntel,59.88023952,41.919,43.3533,2,1,1.4325,,3,2,32,2,1,3,M,,2,,,,,,,
,,,,,,,,1,,2024-09-24_15h36.12.728,Motor_Task,2023.2.2,MacIntel,59.88023952,43.3535,44.1354,3,1,0.7742,,3,3,33,3,1,4,R,,3,,,,,,,
,,,,,,,,1,,2024-09-24_15h36.12.728,Motor_Task,2023.2.2,MacIntel,59.88023952,44.1356,44.8352,1,1,0.6923,,3,4,34,4,1,5,I,,1,,,,,,,
,,,,,,,,1,,2024-09-24_15h36.12.728,Motor_Task,2023.2.2,MacIntel,59.88023952,44.8354,45.4354,1,1,0.5934,,3,5,35,5,1,6,I,,1,,,,,,,
,,,,,,,,1,,2024-09-24_15h36.12.728,Motor_Task,2023.2.2,MacIntel,59.88023952,45.4357,46.1854,3,1,0.7413,,3,6,36,6,1,7,R,,3,,,,,,,
,,,,,,,,1,,2024-09-24_15h36.12.728,Motor_Task,2023.2.2,MacIntel,59.88023952,46.1856,46.7853,2,1,0.5941,,3,7,37,7,1,8,M,,2,,,,,,,
,,,,,,,,1,,2024-09-24_15h36.12.728,Motor_Task,2023.2.2,MacIntel,59.88023952,46.7855,47.8525,4,1,1.0605,,3,8,38,8,1,9,L,,4,,,,,,,
,,,,,,,,1,,2024-09-24_15h36.12.728,Motor_Task,2023.2.2,MacIntel,59.88023952,47.8526,48.5357,1,1,0.6751,,3,9,39,9,1,10,I,,1,,,,,,,
,,,,,,,,1,,2024-09-24_15h36.12.728,Motor_Task,2023.2.2,MacIntel,59.88023952,48.5359,49.2518,2,1,0.7054,,4,0,40,0,1,1,M,,2,,,,,,,
,,,,,,,,1,,2024-09-24_15h36.12.728,Motor_Task,2023.2.2,MacIntel,59.88023952,49.2519,50.1019,3,1,0.842,,4,1,41,1,1,2,R,,3,,,,,,,
,,,,,,,,1,,2024-09-24_15h36.12.728,Motor_Task,2023.2.2,MacIntel,59.88023952,50.1022,50.9354,2,1,0.8311,,4,2,42,2,1,3,M,,2,,,,,,,
,,,,,,,,1,,2024-09-24_15h36.12.728,Motor_Task,2023.2.2,MacIntel,59.88023952,50.9357,52.3517,3,1,1.4139,,4,3,43,3,1,4,R,,3,,,,,,,
,,,,,,,,1,,2024-09-24_15h36.12.728,Motor_Task,2023.2.2,MacIntel,59.88023952,52.352,52.9695,1,1,0.617,,4,4,44,4,1,5,I,,1,,,,,,,
,,,,,,,,1,,2024-09-24_15h36.12.728,Motor_Task,2023.2.2,MacIntel,59.88023952,52.9697,53.5857,1,1,0.615,,4,5,45,5,1,6,I,,1,,,,,,,
,,,,,,,,1,,2024-09-24_15h36.12.728,Motor_Task,2023.2.2,MacIntel,59.88023952,53.5859,54.3194,3,1,0.7327,,4,6,46,6,1,7,R,,3,,,,,,,
,,,,,,,,1,,2024-09-24_15h36.12.728,Motor_Task,2023.2.2,MacIntel,59.88023952,54.3196,54.8685,2,1,0.542,,4,7,47,7,1,8,M,,2,,,,,,,
,,,,,,,,1,,2024-09-24_15h36.12.728,Motor_Task,2023.2.2,MacIntel,59.88023952,54.8688,55.769,4,1,0.8889,,4,8,48,8,1,9,L,,4,,,,,,,
,,,,,,,,1,,2024-09-24_15h36.12.728,Motor_Task,2023.2.2,MacIntel,59.88023952,55.7694,56.3696,1,1,0.5987,,4,9,49,9,1,10,I,,1,,,,,,,
,,,,,,,,1,,2024-09-24_15h36.12.728,Motor_Task,2023.2.2,MacIntel,59.88023952,56.3697,57.2023,2,1,0.8265,,5,0,50,0,1,1,M,,2,,,,,,,
,,,,,,,,1,,2024-09-24_15h36.12.728,Motor_Task,2023.2.2,MacIntel,59.88023952,57.2025,57.9359,3,1,0.7278,,5,1,51,1,1,2,R,,3,,,,,,,
,,,,,,,,1,,2024-09-24_15h36.12.728,Motor_Task,2023.2.2,MacIntel,59.88023952,57.936,58.6194,2,1,0.6723,,5,2,52,2,1,3,M,,2,,,,,,,
,,,,,,,,1,,2024-09-24_15h36.12.728,Motor_Task,2023.2.2,MacIntel,59.88023952,58.6197,59.2688,3,1,0.6384,,5,3,53,3,1,4,R,,3,,,,,,,
,,,,,,,,1,,2024-09-24_15h36.12.728,Motor_Task,2023.2.2,MacIntel,59.88023952,59.269,59.9183,1,1,0.639,,5,4,54,4,1,5,I,,1,,,,,,,
,,,,,,,,1,,2024-09-24_15h36.12.728,Motor_Task,2023.2.2,MacIntel,59.88023952,59.9186,60.5184,1,1,0.5963,,5,5,55,5,1,6,I,,1,,,,,,,
,,,,,,,,1,,2024-09-24_15h36.12.728,Motor_Task,2023.2.2,MacIntel,59.88023952,60.5186,61.2517,3,1,0.7232,,5,6,56,6,1,7,R,,3,,,,,,,
,,,,,,,,1,,2024-09-24_15h36.12.728,Motor_Task,2023.2.2,MacIntel,59.88023952,61.2519,61.7854,2,1,0.5234,,5,7,57,7,1,8,M,,2,,,,,,,
,,,,,,,,1,,2024-09-24_15h36.12.728,Motor_Task,2023.2.2,MacIntel,59.88023952,61.7856,62.6518,4,1,0.8633,,5,8,58,8,1,9,L,,4,,,,,,,
,,,,,,,,1,,2024-09-24_15h36.12.728,Motor_Task,2023.2.2,MacIntel,59.88023952,62.652,63.2193,1,1,0.556,,5,9,59,9,1,10,I,,1,,,,,,,
,,,,,,,,1,,2024-09-24_15h36.12.728,Motor_Task,2023.2.2,MacIntel,59.88023952,63.2195,63.8519,2,1,0.6244,,6,0,60,0,1,1,M,,2,,,,,,,
,,,,,,,,1,,2024-09-24_15h36.12.728,Motor_Task,2023.2.2,MacIntel,59.88023952,63.8521,64.6516,3,1,0.7913,,6,1,61,1,1,2,R,,3,,,,,,,
,,,,,,,,1,,2024-09-24_15h36.12.728,Motor_Task,2023.2.2,MacIntel,59.88023952,64.6518,65.3695,2,1,0.7091,,6,2,62,2,1,3,M,,2,,,,,,,
,,,,,,,,1,,2024-09-24_15h36.12.728,Motor_Task,2023.2.2,MacIntel,59.88023952,65.3697,66.1692,3,1,0.7957,,6,3,63,3,1,4,R,,3,,,,,,,
,,,,,,,,1,,2024-09-24_15h36.12.728,Motor_Task,2023.2.2,MacIntel,59.88023952,66.1695,66.7519,1,1,0.5761,,6,4,64,4,1,5,I,,1,,,,,,,
,,,,,,,,1,,2024-09-24_15h36.12.728,Motor_Task,2023.2.2,MacIntel,59.88023952,66.7522,67.336,1,1,0.5728,,6,5,65,5,1,6,I,,1,,,,,,,
,,,,,,,,1,,2024-09-24_15h36.12.728,Motor_Task,2023.2.2,MacIntel,59.88023952,67.3363,67.9353,3,1,0.5914,,6,6,66,6,1,7,R,,3,,,,,,,
,,,,,,,,1,,2024-09-24_15h36.12.728,Motor_Task,2023.2.2,MacIntel,59.88023952,67.9355,68.4519,2,1,0.5148,,6,7,67,7,1,8,M,,2,,,,,,,
,,,,,,,,1,,2024-09-24_15h36.12.728,Motor_Task,2023.2.2,MacIntel,59.88023952,68.4521,69.2024,4,1,0.7455,,6,8,68,8,1,9,L,,4,,,,,,,
,,,,,,,,1,,2024-09-24_15h36.12.728,Motor_Task,2023.2.2,MacIntel,59.88023952,69.2026,69.7515,1,1,0.547,,6,9,69,9,1,10,I,,1,,,,,,,
,,,,,,,,1,,2024-09-24_15h36.12.728,Motor_Task,2023.2.2,MacIntel,59.88023952,69.7517,70.2694,2,1,0.5114,,7,0,70,0,1,1,M,,2,,,,,,,
,,,,,,,,1,,2024-09-24_15h36.12.728,Motor_Task,2023.2.2,MacIntel,59.88023952,70.2697,70.7516,3,1,0.4781,,7,1,71,1,1,2,R,,3,,,,,,,
,,,,,,,,1,,2024-09-24_15h36.12.728,Motor_Task,2023.2.2,MacIntel,59.88023952,70.7518,71.4189,2,1,0.6563,,7,2,72,2,1,3,M,,2,,,,,,,
,,,,,,,,1,,2024-09-24_15h36.12.728,Motor_Task,2023.2.2,MacIntel,59.88023952,71.4191,72.0515,3,1,0.6224,,7,3,73,3,1,4,R,,3,,,,,,,
,,,,,,,,1,,2024-09-24_15h36.12.728,Motor_Task,2023.2.2,MacIntel,59.88023952,72.0516,72.5192,1,1,0.4668,,7,4,74,4,1,5,I,,1,,,,,,,
,,,,,,,,1,,2024-09-24_15h36.12.728,Motor_Task,2023.2.2,MacIntel,59.88023952,72.5194,73.0188,1,1,0.4912,,7,5,75,5,1,6,I,,1,,,,,,,
,,,,,,,,1,,2024-09-24_15h36.12.728,Motor_Task,2023.2.2,MacIntel,59.88023952,73.0191,73.9015,3,1,0.8737,,7,6,76,6,1,7,R,,3,,,,,,,
,,,,,,,,1,,2024-09-24_15h36.12.728,Motor_Task,2023.2.2,MacIntel,59.88023952,73.9017,74.3515,2,1,0.4436,,7,7,77,7,1,8,M,,2,,,,,,,
,,,,,,,,1,,2024-09-24_15h36.12.728,Motor_Task,2023.2.2,MacIntel,59.88023952,74.3517,74.9014,4,1,0.5414,,7,8,78,8,1,9,L,,4,,,,,,,
,,,,,,,,1,,2024-09-24_15h36.12.728,Motor_Task,2023.2.2,MacIntel,59.88023952,74.9016,75.4017,1,1,0.4927,,7,9,79,9,1,10,I,,1,,,,,,,
,,,,,,,,1,,2024-09-24_15h36.12.728,Motor_Task,2023.2.2,MacIntel,59.88023952,75.4019,76.0687,2,1,0.6558,,8,0,80,0,1,1,M,,2,,,,,,,
,,,,,,,,1,,2024-09-24_15h36.12.728,Motor_Task,2023.2.2,MacIntel,59.88023952,76.0689,76.7192,3,1,0.6415,,8,1,81,1,1,2,R,,3,,,,,,,
,,,,,,,,1,,2024-09-24_15h36.12.728,Motor_Task,2023.2.2,MacIntel,59.88023952,76.7194,77.3191,2,1,0.5919,,8,2,82,2,1,3,M,,2,,,,,,,
,,,,,,,,1,,2024-09-24_15h36.12.728,Motor_Task,2023.2.2,MacIntel,59.88023952,77.3193,77.9524,3,1,0.6237,,8,3,83,3,1,4,R,,3,,,,,,,
,,,,,,,,1,,2024-09-24_15h36.12.728,Motor_Task,2023.2.2,MacIntel,59.88023952,77.9526,78.4847,1,1,0.5241,,8,4,84,4,1,5,I,,1,,,,,,,
,,,,,,,,1,,2024-09-24_15h36.12.728,Motor_Task,2023.2.2,MacIntel,59.88023952,78.4849,79.0691,1,1,0.5803,,8,5,85,5,1,6,I,,1,,,,,,,
,,,,,,,,1,,2024-09-24_15h36.12.728,Motor_Task,2023.2.2,MacIntel,59.88023952,79.0692,79.8518,2,0,0.7761,,8,6,86,6,1,7,R,,3,,,,,,,
,,,,,,,,1,,2024-09-24_15h36.12.728,Motor_Task,2023.2.2,MacIntel,59.88023952,79.852,80.9524,3,0,1.0922,,8,7,87,7,1,8,M,,2,,,,,,,
,,,,,,,,1,,2024-09-24_15h36.12.728,Motor_Task,2023.2.2,MacIntel,59.88023952,80.9525,82.8357,4,1,1.8751,,8,8,88,8,1,9,L,,4,,,,,,,
,,,,,,,,1,,2024-09-24_15h36.12.728,Motor_Task,2023.2.2,MacIntel,59.88023952,82.8359,83.4014,1,1,0.5547,,8,9,89,9,1,10,I,,1,,,,,,,
,,,,,,,,1,,2024-09-24_15h36.12.728,Motor_Task,2023.2.2,MacIntel,59.88023952,83.4016,84.0348,2,1,0.6272,,9,0,90,0,1,1,M,,2,,,,,,,
,,,,,,,,1,,2024-09-24_15h36.12.728,Motor_Task,2023.2.2,MacIntel,59.88023952,84.035,84.7518,3,1,0.7093,,9,1,91,1,1,2,R,,3,,,,,,,
,,,,,,,,1,,2024-09-24_15h36.12.728,Motor_Task,2023.2.2,MacIntel,59.88023952,84.752,85.4023,2,1,0.643,,9,2,92,2,1,3,M,,2,,,,,,,
,,,,,,,,1,,2024-09-24_15h36.12.728,Motor_Task,2023.2.2,MacIntel,59.88023952,85.4025,86.0017,3,1,0.5915,,9,3,93,3,1,4,R,,3,,,,,,,
,,,,,,,,1,,2024-09-24_15h36.12.728,Motor_Task,2023.2.2,MacIntel,59.88023952,86.002,86.6192,1,1,0.6093,,9,4,94,4,1,5,I,,1,,,,,,,
,,,,,,,,1,,2024-09-24_15h36.12.728,Motor_Task,2023.2.2,MacIntel,59.88023952,86.6193,87.218,1,1,0.5911,,9,5,95,5,1,6,I,,1,,,,,,,
,,,,,,,,1,,2024-09-24_15h36.12.728,Motor_Task,2023.2.2,MacIntel,59.88023952,87.2183,87.869,3,1,0.6417,,9,6,96,6,1,7,R,,3,,,,,,,
,,,,,,,,1,,2024-09-24_15h36.12.728,Motor_Task,2023.2.2,MacIntel,59.88023952,87.8693,88.4698,2,1,0.5992,,9,7,97,7,1,8,M,,2,,,,,,,
,,,,,,,,1,,2024-09-24_15h36.12.728,Motor_Task,2023.2.2,MacIntel,59.88023952,88.47,89.1186,4,1,0.6375,,9,8,98,8,1,9,L,,4,,,,,,,
,,,,,,,,1,,2024-09-24_15h36.12.728,Motor_Task,2023.2.2,MacIntel,59.88023952,89.1188,89.6186,1,1,0.4916,,9,9,99,9,1,10,I,,1,,,,,,,
,,,,,,,,1,,2024-09-24_15h36.12.728,Motor_Task,2023.2.2,MacIntel,59.88023952,89.6188,90.3023,2,1,0.674,,10,0,100,0,1,1,M,,2,,,,,,,
,,,,,,,,1,,2024-09-24_15h36.12.728,Motor_Task,2023.2.2,MacIntel,59.88023952,90.3026,90.7679,3,1,0.4621,,10,1,101,1,1,2,R,,3,,,,,,,
,,,,,,,,1,,2024-09-24_15h36.12.728,Motor_Task,2023.2.2,MacIntel,59.88023952,90.7681,91.6353,2,1,0.8604,,10,2,102,2,1,3,M,,2,,,,,,,
,,,,,,,,1,,2024-09-24_15h36.12.728,Motor_Task,2023.2.2,MacIntel,59.88023952,91.6356,92.1181,3,1,0.4742,,10,3,103,3,1,4,R,,3,,,,,,,
,,,,,,,,1,,2024-09-24_15h36.12.728,Motor_Task,2023.2.2,MacIntel,59.88023952,92.1184,92.5692,1,1,0.4463,,10,4,104,4,1,5,I,,1,,,,,,,
,,,,,,,,1,,2024-09-24_15h36.12.728,Motor_Task,2023.2.2,MacIntel,59.88023952,92.5695,93.1013,1,1,0.5275,,10,5,105,5,1,6,I,,1,,,,,,,
,,,,,,,,1,,2024-09-24_15h36.12.728,Motor_Task,2023.2.2,MacIntel,59.88023952,93.1014,93.8012,3,1,0.6901,,10,6,106,6,1,7,R,,3,,,,,,,
,,,,,,,,1,,2024-09-24_15h36.12.728,Motor_Task,2023.2.2,MacIntel,59.88023952,93.8014,94.6011,2,1,0.7991,,10,7,107,7,1,8,M,,2,,,,,,,
,,,,,,,,1,,2024-09-24_15h36.12.728,Motor_Task,2023.2.2,MacIntel,59.88023952,94.6013,95.1187,4,1,0.5089,,10,8,108,8,1,9,L,,4,,,,,,,
,,,,,,,,1,,2024-09-24_15h36.12.728,Motor_Task,2023.2.2,MacIntel,59.88023952,95.1188,95.6515,1,1,0.531,,10,9,109,9,1,10,I,,1,,,,,,,
,,,,,,,,1,,2024-09-24_15h36.12.728,Motor_Task,2023.2.2,MacIntel,59.88023952,95.6518,96.1346,2,1,0.4728,,11,0,110,0,1,1,M,,2,,,,,,,
,,,,,,,,1,,2024-09-24_15h36.12.728,Motor_Task,2023.2.2,MacIntel,59.88023952,96.1348,96.6513,3,1,0.5118,,11,1,111,1,1,2,R,,3,,,,,,,
,,,,,,,,1,,2024-09-24_15h36.12.728,Motor_Task,2023.2.2,MacIntel,59.88023952,96.6516,97.3345,2,1,0.6805,,11,2,112,2,1,3,M,,2,,,,,,,
,,,,,,,,1,,2024-09-24_15h36.12.728,Motor_Task,2023.2.2,MacIntel,59.88023952,97.3346,98.0689,3,1,0.7257,,11,3,113,3,1,4,R,,3,,,,,,,
,,,,,,,,1,,2024-09-24_15h36.12.728,Motor_Task,2023.2.2,MacIntel,59.88023952,98.0693,98.7012,1,1,0.6249,,11,4,114,4,1,5,I,,1,,,,,,,
,,,,,,,,1,,2024-09-24_15h36.12.728,Motor_Task,2023.2.2,MacIntel,59.88023952,98.7015,99.2677,1,1,0.5561,,11,5,115,5,1,6,I,,1,,,,,,,
,,,,,,,,1,,2024-09-24_15h36.12.728,Motor_Task,2023.2.2,MacIntel,59.88023952,99.2679,100.0011,3,1,0.7227,,11,6,116,6,1,7,R,,3,,,,,,,
,,,,,,,,1,,2024-09-24_15h36.12.728,Motor_Task,2023.2.2,MacIntel,59.88023952,100.0014,100.5028,2,1,0.501,,11,7,117,7,1,8,M,,2,,,,,,,
,,,,,,,,1,,2024-09-24_15h36.12.728,Motor_Task,2023.2.2,MacIntel,59.88023952,100.503,100.9681,4,1,0.4573,,11,8,118,8,1,9,L,,4,,,,,,,
,,,,,,,,1,,2024-09-24_15h36.12.728,Motor_Task,2023.2.2,MacIntel,59.88023952,100.9686,101.4686,1,1,0.4995,,11,9,119,9,1,10,I,,1,,,,,,,
,,,,,,,,1,,2024-09-24_15h36.12.728,Motor_Task,2023.2.2,MacIntel,59.88023952,101.4689,101.9851,2,1,0.512,,12,0,120,0,1,1,M,,2,,,,,,,
,,,,,,,,1,,2024-09-24_15h36.12.728,Motor_Task,2023.2.2,MacIntel,59.88023952,101.9854,102.4685,3,1,0.481,,12,1,121,1,1,2,R,,3,,,,,,,
,,,,,,,,1,,2024-09-24_15h36.12.728,Motor_Task,2023.2.2,MacIntel,59.88023952,102.4688,103.2852,2,1,0.813,,12,2,122,2,1,3,M,,2,,,,,,,
,,,,,,,,1,,2024-09-24_15h36.12.728,Motor_Task,2023.2.2,MacIntel,59.88023952,103.2854,103.9851,3,1,0.6939,,12,3,123,3,1,4,R,,3,,,,,,,
,,,,,,,,1,,2024-09-24_15h36.12.728,Motor_Task,2023.2.2,MacIntel,59.88023952,103.9854,104.6689,1,1,0.6724,,12,4,124,4,1,5,I,,1,,,,,,,
,,,,,,,,1,,2024-09-24_15h36.12.728,Motor_Task,2023.2.2,MacIntel,59.88023952,104.6692,105.2521,1,1,0.5737,,12,5,125,5,1,6,I,,1,,,,,,,
,,,,,,,,1,,2024-09-24_15h36.12.728,Motor_Task,2023.2.2,MacIntel,59.88023952,105.2523,105.9517,3,1,0.6924,,12,6,126,6,1,7,R,,3,,,,,,,
,,,,,,,,1,,2024-09-24_15h36.12.728,Motor_Task,2023.2.2,MacIntel,59.88023952,105.9519,106.7689,2,1,0.8055,,12,7,127,7,1,8,M,,2,,,,,,,
,,,,,,,,1,,2024-09-24_15h36.12.728,Motor_Task,2023.2.2,MacIntel,59.88023952,106.7692,107.4009,4,1,0.6228,,12,8,128,8,1,9,L,,4,,,,,,,
,,,,,,,,1,,2024-09-24_15h36.12.728,Motor_Task,2023.2.2,MacIntel,59.88023952,107.4011,107.9849,1,1,0.5816,,12,9,129,9,1,10,I,,1,,,,,,,
,,,,,,,,1,,2024-09-24_15h36.12.728,Motor_Task,2023.2.2,MacIntel,59.88023952,107.9851,108.452,2,1,0.4585,,13,0,130,0,1,1,M,,2,,,,,,,
,,,,,,,,1,,2024-09-24_15h36.12.728,Motor_Task,2023.2.2,MacIntel,59.88023952,108.4523,108.9689,3,1,0.5096,,13,1,131,1,1,2,R,,3,,,,,,,
,,,,,,,,1,,2024-09-24_15h36.12.728,Motor_Task,2023.2.2,MacIntel,59.88023952,108.9692,109.7011,2,1,0.7225,,13,2,132,2,1,3,M,,2,,,,,,,
,,,,,,,,1,,2024-09-24_15h36.12.728,Motor_Task,2023.2.2,MacIntel,59.88023952,109.7012,110.4513,3,1,0.7434,,13,3,133,3,1,4,R,,3,,,,,,,
,,,,,,,,1,,2024-09-24_15h36.12.728,Motor_Task,2023.2.2,MacIntel,59.88023952,110.4515,111.0345,1,1,0.5747,,13,4,134,4,1,5,I,,1,,,,,,,
,,,,,,,,1,,2024-09-24_15h36.12.728,Motor_Task,2023.2.2,MacIntel,59.88023952,111.0346,111.5353,2,0,0.4949,,13,5,135,5,1,6,I,,1,,,,,,,
,,,,,,,,1,,2024-09-24_15h36.12.728,Motor_Task,2023.2.2,MacIntel,59.88023952,111.5355,112.6188,3,1,1.0792,,13,6,136,6,1,7,R,,3,,,,,,,
,,,,,,,,1,,2024-09-24_15h36.12.728,Motor_Task,2023.2.2,MacIntel,59.88023952,112.619,113.3685,2,1,0.7387,,13,7,137,7,1,8,M,,2,,,,,,,
,,,,,,,,1,,2024-09-24_15h36.12.728,Motor_Task,2023.2.2,MacIntel,59.88023952,113.3689,114.2511,4,1,0.8748,,13,8,138,8,1,9,L,,4,,,,,,,
,,,,,,,,1,,2024-09-24_15h36.12.728,Motor_Task,2023.2.2,MacIntel,59.88023952,114.2513,114.7852,1,1,0.5281,,13,9,139,9,1,10,I,,1,,,,,,,
,,,,,,,,1,,2024-09-24_15h36.12.728,Motor_Task,2023.2.2,MacIntel,59.88023952,114.7854,115.3511,2,1,0.5558,,14,0,140,0,1,1,M,,2,,,,,,,
,,,,,,,,1,,2024-09-24_15h36.12.728,Motor_Task,2023.2.2,MacIntel,59.88023952,115.3512,115.851,3,1,0.4961,,14,1,141,1,1,2,R,,3,,,,,,,
,,,,,,,,1,,2024-09-24_15h36.12.728,Motor_Task,2023.2.2,MacIntel,59.88023952,115.8513,116.5511,2,1,0.6923,,14,2,142,2,1,3,M,,2,,,,,,,
,,,,,,,,1,,2024-09-24_15h36.12.728,Motor_Task,2023.2.2,MacIntel,59.88023952,116.5513,117.0516,3,1,0.4941,,14,3,143,3,1,4,R,,3,,,,,,,
,,,,,,,,1,,2024-09-24_15h36.12.728,Motor_Task,2023.2.2,MacIntel,59.88023952,117.0518,117.6512,1,1,0.599,,14,4,144,4,1,5,I,,1,,,,,,,
,,,,,,,,1,,2024-09-24_15h36.12.728,Motor_Task,2023.2.2,MacIntel,59.88023952,117.6514,118.1674,1,1,0.5133,,14,5,145,5,1,6,I,,1,,,,,,,
,,,,,,,,1,,2024-09-24_15h36.12.728,Motor_Task,2023.2.2,MacIntel,59.88023952,118.1676,118.8349,3,1,0.6596,,14,6,146,6,1,7,R,,3,,,,,,,
,,,,,,,,1,,2024-09-24_15h36.12.728,Motor_Task,2023.2.2,MacIntel,59.88023952,118.835,119.6344,2,1,0.7896,,14,7,147,7,1,8,M,,2,,,,,,,
,,,,,,,,1,,2024-09-24_15h36.12.728,Motor_Task,2023.2.2,MacIntel,59.88023952,119.6345,120.1018,4,1,0.4604,,14,8,148,8,1,9,L,,4,,,,,,,
,,,,,,,,1,,2024-09-24_15h36.12.728,Motor_Task,2023.2.2,MacIntel,59.88023952,120.1019,120.5843,1,1,0.4739,,14,9,149,9,1,10,I,,1,,,,,,,
,,,,,,,,1,,2024-09-24_15h36.12.728,Motor_Task,2023.2.2,MacIntel,59.88023952,120.5845,121.0852,2,1,0.4918,,15,0,150,0,1,1,M,,2,,,,,,,
,,,,,,,,1,,2024-09-24_15h36.12.728,Motor_Task,2023.2.2,MacIntel,59.88023952,121.0854,121.5678,3,1,0.476,,15,1,151,1,1,2,R,,3,,,,,,,
,,,,,,,,1,,2024-09-24_15h36.12.728,Motor_Task,2023.2.2,MacIntel,59.88023952,121.5679,122.2182,2,1,0.6496,,15,2,152,2,1,3,M,,2,,,,,,,
,,,,,,,,1,,2024-09-24_15h36.12.728,Motor_Task,2023.2.2,MacIntel,59.88023952,122.2184,123.0512,3,1,0.8317,,15,3,153,3,1,4,R,,3,,,,,,,
,,,,,,,,1,,2024-09-24_15h36.12.728,Motor_Task,2023.2.2,MacIntel,59.88023952,123.0513,123.5851,1,1,0.5227,,15,4,154,4,1,5,I,,1,,,,,,,
,,,,,,,,1,,2024-09-24_15h36.12.728,Motor_Task,2023.2.2,MacIntel,59.88023952,123.5853,124.1176,1,1,0.5264,,15,5,155,5,1,6,I,,1,,,,,,,
,,,,,,,,1,,2024-09-24_15h36.12.728,Motor_Task,2023.2.2,MacIntel,59.88023952,124.1178,124.7178,3,1,0.5989,,15,6,156,6,1,7,R,,3,,,,,,,
,,,,,,,,1,,2024-09-24_15h36.12.728,Motor_Task,2023.2.2,MacIntel,59.88023952,124.718,125.3685,2,1,0.6409,,15,7,157,7,1,8,M,,2,,,,,,,
,,,,,,,,1,,2024-09-24_15h36.12.728,Motor_Task,2023.2.2,MacIntel,59.88023952,125.3688,125.9175,4,1,0.5422,,15,8,158,8,1,9,L,,4,,,,,,,
,,,,,,,,1,,2024-09-24_15h36.12.728,Motor_Task,2023.2.2,MacIntel,59.88023952,125.9178,126.3842,1,1,0.4583,,15,9,159,9,1,10,I,,1,,,,,,,
,,,,,,,,1,,2024-09-24_15h36.12.728,Motor_Task,2023.2.2,MacIntel,59.88023952,126.3843,126.8846,2,1,0.4967,,16,0,160,0,1,1,M,,2,,,,,,,
,,,,,,,,1,,2024-09-24_15h36.12.728,Motor_Task,2023.2.2,MacIntel,59.88023952,126.8848,127.3851,3,1,0.4912,,16,1,161,1,1,2,R,,3,,,,,,,
,,,,,,,,1,,2024-09-24_15h36.12.728,Motor_Task,2023.2.2,MacIntel,59.88023952,127.3853,127.9511,2,1,0.5581,,16,2,162,2,1,3,M,,2,,,,,,,
,,,,,,,,1,,2024-09-24_15h36.12.728,Motor_Task,2023.2.2,MacIntel,59.88023952,127.9513,128.6175,3,1,0.6632,,16,3,163,3,1,4,R,,3,,,,,,,
,,,,,,,,1,,2024-09-24_15h36.12.728,Motor_Task,2023.2.2,MacIntel,59.88023952,128.6177,129.2183,1,1,0.5953,,16,4,164,4,1,5,I,,1,,,,,,,
,,,,,,,,1,,2024-09-24_15h36.12.728,Motor_Task,2023.2.2,MacIntel,59.88023952,129.2186,129.8007,1,1,0.5748,,16,5,165,5,1,6,I,,1,,,,,,,
,,,,,,,,1,,2024-09-24_15h36.12.728,Motor_Task,2023.2.2,MacIntel,59.88023952,129.801,130.5186,3,1,0.7119,,16,6,166,6,1,7,R,,3,,,,,,,
,,,,,,,,1,,2024-09-24_15h36.12.728,Motor_Task,2023.2.2,MacIntel,59.88023952,130.5189,131.1351,2,1,0.6093,,16,7,167,7,1,8,M,,2,,,,,,,
,,,,,,,,1,,2024-09-24_15h36.12.728,Motor_Task,2023.2.2,MacIntel,59.88023952,131.1352,131.7841,4,1,0.6465,,16,8,168,8,1,9,L,,4,,,,,,,
,,,,,,,,1,,2024-09-24_15h36.12.728,Motor_Task,2023.2.2,MacIntel,59.88023952,131.7843,132.2018,1,1,0.406,,16,9,169,9,1,10,I,,1,,,,,,,
,,,,,,,,1,,2024-09-24_15h36.12.728,Motor_Task,2023.2.2,MacIntel,59.88023952,132.202,132.7342,2,1,0.5238,,17,0,170,0,1,1,M,,2,,,,,,,
,,,,,,,,1,,2024-09-24_15h36.12.728,Motor_Task,2023.2.2,MacIntel,59.88023952,132.7344,133.2178,3,1,0.4727,,17,1,171,1,1,2,R,,3,,,,,,,
,,,,,,,,1,,2024-09-24_15h36.12.728,Motor_Task,2023.2.2,MacIntel,59.88023952,133.218,133.7516,2,1,0.5289,,17,2,172,2,1,3,M,,2,,,,,,,
,,,,,,,,1,,2024-09-24_15h36.12.728,Motor_Task,2023.2.2,MacIntel,59.88023952,133.7518,134.6008,3,1,0.8415,,17,3,173,3,1,4,R,,3,,,,,,,
,,,,,,,,1,,2024-09-24_15h36.12.728,Motor_Task,2023.2.2,MacIntel,59.88023952,134.6011,135.0516,1,1,0.4483,,17,4,174,4,1,5,I,,1,,,,,,,
,,,,,,,,1,,2024-09-24_15h36.12.728,Motor_Task,2023.2.2,MacIntel,59.88023952,135.0517,135.4846,1,1,0.431,,17,5,175,5,1,6,I,,1,,,,,,,
,,,,,,,,1,,2024-09-24_15h36.12.728,Motor_Task,2023.2.2,MacIntel,59.88023952,135.4848,136.1515,3,1,0.6603,,17,6,176,6,1,7,R,,3,,,,,,,
,,,,,,,,1,,2024-09-24_15h36.12.728,Motor_Task,2023.2.2,MacIntel,59.88023952,136.1518,136.7677,2,1,0.6098,,17,7,177,7,1,8,M,,2,,,,,,,
,,,,,,,,1,,2024-09-24_15h36.12.728,Motor_Task,2023.2.2,MacIntel,59.88023952,136.768,137.218,4,1,0.4419,,17,8,178,8,1,9,L,,4,,,,,,,
,,,,,,,,1,,2024-09-24_15h36.12.728,Motor_Task,2023.2.2,MacIntel,59.88023952,137.2182,137.6679,1,1,0.4421,,17,9,179,9,1,10,I,,1,,,,,,,
,,,,,,,,1,,2024-09-24_15h36.12.728,Motor_Task,2023.2.2,MacIntel,59.88023952,137.6683,138.1683,2,1,0.4991,,18,0,180,0,1,1,M,,2,,,,,,,
,,,,,,,,1,,2024-09-24_15h36.12.728,Motor_Task,2023.2.2,MacIntel,59.88023952,138.1685,138.6006,3,1,0.424,,18,1,181,1,1,2,R,,3,,,,,,,
,,,,,,,,1,,2024-09-24_15h36.12.728,Motor_Task,2023.2.2,MacIntel,59.88023952,138.6008,139.1173,2,1,0.5089,,18,2,182,2,1,3,M,,2,,,,,,,
,,,,,,,,1,,2024-09-24_15h36.12.728,Motor_Task,2023.2.2,MacIntel,59.88023952,139.1176,139.9838,3,1,0.8568,,18,3,183,3,1,4,R,,3,,,,,,,
,,,,,,,,1,,2024-09-24_15h36.12.728,Motor_Task,2023.2.2,MacIntel,59.88023952,139.984,140.5013,1,1,0.5161,,18,4,184,4,1,5,I,,1,,,,,,,
,,,,,,,,1,,2024-09-24_15h36.12.728,Motor_Task,2023.2.2,MacIntel,59.88023952,140.5014,140.9678,1,1,0.459,,18,5,185,5,1,6,I,,1,,,,,,,
,,,,,,,,1,,2024-09-24_15h36.12.728,Motor_Task,2023.2.2,MacIntel,59.88023952,140.968,141.6505,3,1,0.6722,,18,6,186,6,1,7,R,,3,,,,,,,
,,,,,,,,1,,2024-09-24_15h36.12.728,Motor_Task,2023.2.2,MacIntel,59.88023952,141.6507,142.1338,2,1,0.4734,,18,7,187,7,1,8,M,,2,,,,,,,
,,,,,,,,1,,2024-09-24_15h36.12.728,Motor_Task,2023.2.2,MacIntel,59.88023952,142.134,142.5344,4,1,0.3953,,18,8,188,8,1,9,L,,4,,,,,,,
,,,,,,,,1,,2024-09-24_15h36.12.728,Motor_Task,2023.2.2,MacIntel,59.88023952,142.5346,143.0182,1,1,0.4825,,18,9,189,9,1,10,I,,1,,,,,,,
,,,,,,,,1,,2024-09-24_15h36.12.728,Motor_Task,2023.2.2,MacIntel,59.88023952,143.0185,143.4518,2,1,0.4216,,19,0,190,0,1,1,M,,2,,,,,,,
,,,,,,,,1,,2024-09-24_15h36.12.728,Motor_Task,2023.2.2,MacIntel,59.88023952,143.452,144.1347,3,1,0.6742,,19,1,191,1,1,2,R,,3,,,,,,,
,,,,,,,,1,,2024-09-24_15h36.12.728,Motor_Task,2023.2.2,MacIntel,59.88023952,144.1349,144.9179,2,1,0.7716,,19,2,192,2,1,3,M,,2,,,,,,,
,,,,,,,,1,,2024-09-24_15h36.12.728,Motor_Task,2023.2.2,MacIntel,59.88023952,144.9181,145.4014,3,1,0.4763,,19,3,193,3,1,4,R,,3,,,,,,,
,,,,,,,,1,,2024-09-24_15h36.12.728,Motor_Task,2023.2.2,MacIntel,59.88023952,145.4016,146.0514,1,1,0.6432,,19,4,194,4,1,5,I,,1,,,,,,,
,,,,,,,,1,,2024-09-24_15h36.12.728,Motor_Task,2023.2.2,MacIntel,59.88023952,146.0516,146.5006,1,1,0.4457,,19,5,195,5,1,6,I,,1,,,,,,,
,,,,,,,,1,,2024-09-24_15h36.12.728,Motor_Task,2023.2.2,MacIntel,59.88023952,146.5008,147.1179,3,1,0.6108,,19,6,196,6,1,7,R,,3,,,,,,,
,,,,,,,,1,,2024-09-24_15h36.12.728,Motor_Task,2023.2.2,MacIntel,59.88023952,147.1183,147.4182,2,1,0.2955,,19,7,197,7,1,8,M,,2,,,,,,,
,,,,,,,,1,,2024-09-24_15h36.12.728,Motor_Task,2023.2.2,MacIntel,59.88023952,147.4186,147.9177,4,1,0.4921,,19,8,198,8,1,9,L,,4,,,,,,,
,,,,,,,,1,,2024-09-24_15h36.12.728,Motor_Task,2023.2.2,MacIntel,59.88023952,147.9179,148.3342,1,1,0.4078,,19,9,199,9,1,10,I,,1,,,,,,,
,,,,,,,,1,,2024-09-24_15h36.12.728,Motor_Task,2023.2.2,MacIntel,59.88023952,148.3439,148.7676,2,1,0.4159,,,,,,,3,M,,2,0,0,0,2,1,,
,,,,,,,,1,,2024-09-24_15h36.12.728,Motor_Task,2023.2.2,MacIntel,59.88023952,148.768,149.6673,4,1,0.8975,,,,,,,9,L,,4,0,1,1,8,1,,
,,,,,,,,1,,2024-09-24_15h36.12.728,Motor_Task,2023.2.2,MacIntel,59.88023952,149.6675,150.5172,3,1,0.8477,,,,,,,7,R,,3,0,2,2,6,1,,
,,,,,,,,1,,2024-09-24_15h36.12.728,Motor_Task,2023.2.2,MacIntel,59.88023952,150.5175,151.0177,2,1,0.4899,,,,,,,8,M,,2,0,3,3,7,1,,
,,,,,,,,1,,2024-09-24_15h36.12.728,Motor_Task,2023.2.2,MacIntel,59.88023952,151.0181,151.6347,2,1,0.6077,,,,,,,1,M,,2,0,4,4,0,1,,
,,,,,,,,1,,2024-09-24_15h36.12.728,Motor_Task,2023.2.2,MacIntel,59.88023952,151.6349,152.4506,3,1,0.811,,,,,,,4,R,,3,0,5,5,3,1,,
,,,,,,,,1,,2024-09-24_15h36.12.728,Motor_Task,2023.2.2,MacIntel,59.88023952,152.4507,153.1347,3,1,0.6783,,,,,,,2,R,,3,0,6,6,1,1,,
,,,,,,,,1,,2024-09-24_15h36.12.728,Motor_Task,2023.2.2,MacIntel,59.88023952,153.1349,153.8505,1,1,0.7045,,,,,,,6,I,,1,0,7,7,5,1,,
,,,,,,,,1,,2024-09-24_15h36.12.728,Motor_Task,2023.2.2,MacIntel,59.88023952,153.8507,154.5007,1,1,0.6482,,,,,,,10,I,,1,0,8,8,9,1,,
,,,,,,,,1,,2024-09-24_15h36.12.728,Motor_Task,2023.2.2,MacIntel,59.88023952,154.501,155.368,1,1,0.8668,,,,,,,5,I,,1,0,9,9,4,1,,
,,,,,,,,1,,2024-09-24_15h36.12.728,Motor_Task,2023.2.2,MacIntel,59.88023952,155.3681,155.9836,2,1,0.6133,,,,,,,1,M,,2,1,0,10,0,1,,
,,,,,,,,1,,2024-09-24_15h36.12.728,Motor_Task,2023.2.2,MacIntel,59.88023952,155.9839,156.4512,3,1,0.4581,,,,,,,7,R,,3,1,1,11,6,1,,
,,,,,,,,1,,2024-09-24_15h36.12.728,Motor_Task,2023.2.2,MacIntel,59.88023952,156.4515,157.0839,2,1,0.6284,,,,,,,8,M,,2,1,2,12,7,1,,
,,,,,,,,1,,2024-09-24_15h36.12.728,Motor_Task,2023.2.2,MacIntel,59.88023952,157.0841,157.7507,4,1,0.659,,,,,,,9,L,,4,1,3,13,8,1,,
,,,,,,,,1,,2024-09-24_15h36.12.728,Motor_Task,2023.2.2,MacIntel,59.88023952,157.7509,158.5837,3,1,0.8246,,,,,,,4,R,,3,1,4,14,3,1,,
,,,,,,,,1,,2024-09-24_15h36.12.728,Motor_Task,2023.2.2,MacIntel,59.88023952,158.5839,159.1838,3,1,0.5988,,,,,,,2,R,,3,1,5,15,1,1,,
,,,,,,,,1,,2024-09-24_15h36.12.728,Motor_Task,2023.2.2,MacIntel,59.88023952,159.1843,159.9005,1,1,0.7094,,,,,,,6,I,,1,1,6,16,5,1,,
,,,,,,,,1,,2024-09-24_15h36.12.728,Motor_Task,2023.2.2,MacIntel,59.88023952,159.9007,160.4681,1,1,0.5611,,,,,,,10,I,,1,1,7,17,9,1,,
,,,,,,,,1,,2024-09-24_15h36.12.728,Motor_Task,2023.2.2,MacIntel,59.88023952,160.4684,161.0338,2,1,0.559,,,,,,,3,M,,2,1,8,18,2,1,,
,,,,,,,,1,,2024-09-24_15h36.12.728,Motor_Task,2023.2.2,MacIntel,59.88023952,161.034,161.767,1,1,0.7266,,,,,,,5,I,,1,1,9,19,4,1,,
,,,,,,,,1,,2024-09-24_15h36.12.728,Motor_Task,2023.2.2,MacIntel,59.88023952,161.7671,162.4008,2,1,0.6276,,,,,,,8,M,,2,2,0,20,7,1,,
,,,,,,,,1,,2024-09-24_15h36.12.728,Motor_Task,2023.2.2,MacIntel,59.88023952,162.4011,162.9506,1,1,0.5431,,,,,,,6,I,,1,2,1,21,5,1,,
,,,,,,,,1,,2024-09-24_15h36.12.728,Motor_Task,2023.2.2,MacIntel,59.88023952,162.9508,163.817,4,1,0.8596,,,,,,,9,L,,4,2,2,22,8,1,,
,,,,,,,,1,,2024-09-24_15h36.12.728,Motor_Task,2023.2.2,MacIntel,59.88023952,163.8172,164.584,3,1,0.7574,,,,,,,2,R,,3,2,3,23,1,1,,
,,,,,,,,1,,2024-09-24_15h36.12.728,Motor_Task,2023.2.2,MacIntel,59.88023952,164.5843,165.1341,1,1,0.5424,,,,,,,5,I,,1,2,4,24,4,1,,
,,,,,,,,1,,2024-09-24_15h36.12.728,Motor_Task,2023.2.2,MacIntel,59.88023952,165.1343,165.9346,3,1,0.7923,,,,,,,4,R,,3,2,5,25,3,1,,
,,,,,,,,1,,2024-09-24_15h36.12.728,Motor_Task,2023.2.2,MacIntel,59.88023952,165.9348,166.5335,2,1,0.5953,,,,,,,1,M,,2,2,6,26,0,1,,
,,,,,,,,1,,2024-09-24_15h36.12.728,Motor_Task,2023.2.2,MacIntel,59.88023952,166.5338,167.0836,2,1,0.5436,,,,,,,3,M,,2,2,7,27,2,1,,
,,,,,,,,1,,2024-09-24_15h36.12.728,Motor_Task,2023.2.2,MacIntel,59.88023952,167.0839,167.6345,1,1,0.5425,,,,,,,10,I,,1,2,8,28,9,1,,
,,,,,,,,1,,2024-09-24_15h36.12.728,Motor_Task,2023.2.2,MacIntel,59.88023952,167.6347,168.2509,3,1,0.609,,,,,,,7,R,,3,2,9,29,6,1,,
,,,,,,,,1,,2024-09-24_15h36.12.728,Motor_Task,2023.2.2,MacIntel,59.88023952,168.2512,168.8006,4,1,0.5392,,,,,,,9,L,,4,3,0,30,8,1,,
,,,,,,,,1,,2024-09-24_15h36.12.728,Motor_Task,2023.2.2,MacIntel,59.88023952,168.8008,169.4838,1,1,0.6751,,,,,,,10,I,,1,3,1,31,9,1,,
,,,,,,,,1,,2024-09-24_15h36.12.728,Motor_Task,2023.2.2,MacIntel,59.88023952,169.484,169.9178,2,1,0.4232,,,,,,,8,M,,2,3,2,32,7,1,,
,,,,,,,,1,,2024-09-24_15h36.12.728,Motor_Task,2023.2.2,MacIntel,59.88023952,169.9179,170.5843,1,1,0.6658,,,,,,,6,I,,1,3,3,33,5,1,,
,,,,,,,,1,,2024-09-24_15h36.12.728,Motor_Task,2023.2.2,MacIntel,59.88023952,170.5844,171.0669,2,1,0.4813,,,,,,,1,M,,2,3,4,34,0,1,,
,,,,,,,,1,,2024-09-24_15h36.12.728,Motor_Task,2023.2.2,MacIntel,59.88023952,171.0671,171.7175,3,1,0.6481,,,,,,,7,R,,3,3,5,35,6,1,,
,,,,,,,,1,,2024-09-24_15h36.12.728,Motor_Task,2023.2.2,MacIntel,59.88023952,171.7177,172.1507,3,1,0.4295,,,,,,,4,R,,3,3,6,36,3,1,,
,,,,,,,,1,,2024-09-24_15h36.12.728,Motor_Task,2023.2.2,MacIntel,59.88023952,172.1509,172.7335,3,1,0.5749,,,,,,,2,R,,3,3,7,37,1,1,,
,,,,,,,,1,,2024-09-24_15h36.12.728,Motor_Task,2023.2.2,MacIntel,59.88023952,172.7337,173.3343,1,1,0.5997,,,,,,,5,I,,1,3,8,38,4,1,,
,,,,,,,,1,,2024-09-24_15h36.12.728,Motor_Task,2023.2.2,MacIntel,59.88023952,173.3345,173.8169,2,1,0.4727,,,,,,,3,M,,2,3,9,39,2,1,,
,,,,,,,,1,,2024-09-24_15h36.12.728,Motor_Task,2023.2.2,MacIntel,59.88023952,173.8172,174.2836,3,1,0.465,,,,,,,7,R,,3,4,0,40,6,1,,
,,,,,,,,1,,2024-09-24_15h36.12.728,Motor_Task,2023.2.2,MacIntel,59.88023952,174.2839,174.8006,3,1,0.5124,,,,,,,2,R,,3,4,1,41,1,1,,
,,,,,,,,1,,2024-09-24_15h36.12.728,Motor_Task,2023.2.2,MacIntel,59.88023952,174.8008,175.6179,1,1,0.8129,,,,,,,5,I,,1,4,2,42,4,1,,
,,,,,,,,1,,2024-09-24_15h36.12.728,Motor_Task,2023.2.2,MacIntel,59.88023952,175.6181,176.0834,2,1,0.4556,,,,,,,3,M,,2,4,3,43,2,1,,
,,,,,,,,1,,2024-09-24_15h36.12.728,Motor_Task,2023.2.2,MacIntel,59.88023952,176.0835,176.7344,2,1,0.6497,,,,,,,1,M,,2,4,4,44,0,1,,
,,,,,,,,1,,2024-09-24_15h36.12.728,Motor_Task,2023.2.2,MacIntel,59.88023952,176.7346,177.2344,3,1,0.4989,,,,,,,4,R,,3,4,5,45,3,1,,
,,,,,,,,1,,2024-09-24_15h36.12.728,Motor_Task,2023.2.2,MacIntel,59.88023952,177.2346,178.0002,4,1,0.7584,,,,,,,9,L,,4,4,6,46,8,1,,
,,,,,,,,1,,2024-09-24_15h36.12.728,Motor_Task,2023.2.2,MacIntel,59.88023952,178.0005,178.5012,1,1,0.4894,,,,,,,6,I,,1,4,7,47,5,1,,
,,,,,,,,1,,2024-09-24_15h36.12.728,Motor_Task,2023.2.2,MacIntel,59.88023952,178.5015,178.9333,2,1,0.4249,,,,,,,8,M,,2,4,8,48,7,1,,
,,,,,,,,1,,2024-09-24_15h36.12.728,Motor_Task,2023.2.2,MacIntel,59.88023952,178.9335,179.6177,1,1,0.6729,,,,,,,10,I,,1,4,9,49,9,1,,
,,,,,,,,1,,2024-09-24_15h36.12.728,Motor_Task,2023.2.2,MacIntel,59.88023952,,,,,,,,,,,,,,,,,,,,,179.618,183.618