Trigger.started,Trigger.stopped,key_resp_4.keys,key_resp_4.rt,key_resp_4.duration,mouse.x,mouse.y,mouse.leftButton,mouse.midButton,mouse.rightButton,Session,Subject,date,expName,psychopyVersion,OS,frameRate,complex_block.started,complex_block.stopped,key_resp.keys,key_resp.corr,key_resp.rt,key_resp.duration,complex_block_loop.thisRepN,complex_block_loop.thisTrialN,complex_block_loop.thisN,complex_block_loop.thisIndex,complex_block_loop.ran,trial,finger,markerPos,correctResp,new_block_loop.thisRepN,new_block_loop.thisTrialN,new_block_loop.thisN,new_block_loop.thisIndex,new_block_loop.ran,endBuffer.started,endBuffer.stopped
0.0005,8.4606,1,8.4282,,-0.229999987,-0.309166654,0,0,0,1,,2024-09-24_15h34.05.625,Motor_Task,2023.2.2,Win32,59.88023952,,,,,,,,,,,,,,,,,,,,,,
,,,,,,,,,,1,,2024-09-24_15h34.05.625,Motor_Task,2023.2.2,Win32,59.88023952,8.4811,9.2448,2,1,0.7611,,0,0,0,0,1,1,M,,2,,,,,,,
,,,,,,,,,,1,,2024-09-24_15h34.05.625,Motor_Task,2023.2.2,Win32,59.88023952,9.2454,9.9616,3,1,0.7156,,0,1,1,1,1,2,R,,3,,,,,,,
,,,,,,,,,,1,,2024-09-24_15h34.05.625,Motor_Task,2023.2.2,Win32,59.88023952,9.9619,10.6786,2,1,0.7097,,0,2,2,2,1,3,M,,2,,,,,,,
,,,,,,,,,,1,,2024-09-24_15h34.05.625,Motor_Task,2023.2.2,Win32,59.88023952,10.679,11.2462,3,1,0.5577,,0,3,3,3,1,4,R,,3,,,,,,,
,,,,,,,,,,1,,2024-09-24_15h34.05.625,Motor_Task,2023.2.2,Win32,59.88023952,11.2468,11.8517,1,1,0.6046,,0,4,4,4,1,5,I,,1,,,,,,,
,,,,,,,,,,1,,2024-09-24_15h34.05.625,Motor_Task,2023.2.2,Win32,59.88023952,11.852,12.4353,1,1,0.5826,,0,5,5,5,1,6,I,,1,,,,,,,
,,,,,,,,,,1,,2024-09-24_15h34.05.625,Motor_Task,2023.2.2,Win32,59.88023952,12.4356,13.1972,3,1,0.7502,,0,6,6,6,1,7,R,,3,,,,,,,
,,,,,,,,,,1,,2024-09-24_15h34.05.625,Motor_Task,2023.2.2,Win32,59.88023952,13.1976,13.7976,2,1,0.5976,,0,7,7,7,1,8,M,,2,,,,,,,
,,,,,,,,,,1,,2024-09-24_15h34.05.625,Motor_Task,2023.2.2,Win32,59.88023952,13.798,14.4146,4,1,0.6155,,0,8,8,8,1,9,L,,4,,,,,,,
,,,,,,,,,,1,,2024-09-24_15h34.05.625,Motor_Task,2023.2.2,Win32,59.88023952,14.415,15.1044,1,1,0.6891,,0,9,9,9,1,10,I,,1,,,,,,,
,,,,,,,,,,1,,2024-09-24_15h34.05.625,Motor_Task,2023.2.2,Win32,59.88023952,15.1046,15.6999,2,1,0.591,,1,0,10,0,1,1,M,,2,,,,,,,
,,,,,,,,,,1,,2024-09-24_15h34.05.625,Motor_Task,2023.2.2,Win32,59.88023952,15.7006,16.2826,3,1,0.5721,,1,1,11,1,1,2,R,,3,,,,,,,
,,,,,,,,,,1,,2024-09-24_15h34.05.625,Motor_Task,2023.2.2,Win32,59.88023952,16.283,17.0163,2,1,0.7302,,1,2,12,2,1,3,M,,2,,,,,,,
,,,,,,,,,,1,,2024-09-24_15h34.05.625,Motor_Task,2023.2.2,Win32,59.88023952,17.0165,17.6551,3,1,0.6377,,1,3,13,3,1,4,R,,3,,,,,,,
,,,,,,,,,,1,,2024-09-24_15h34.05.625,Motor_Task,2023.2.2,Win32,59.88023952,17.6555,18.2172,1,1,0.5511,,1,4,14,4,1,5,I,,1,,,,,,,
,,,,,,,,,,1,,2024-09-24_15h34.05.625,Motor_Task,2023.2.2,Win32,59.88023952,18.2175,18.9179,1,1,0.6956,,1,5,15,5,1,6,I,,1,,,,,,,
,,,,,,,,,,1,,2024-09-24_15h34.05.625,Motor_Task,2023.2.2,Win32,59.88023952,18.9183,19.643,3,1,0.7243,,1,6,16,6,1,7,R,,3,,,,,,,
,,,,,,,,,,1,,2024-09-24_15h34.05.625,Motor_Task,2023.2.2,Win32,59.88023952,19.6441,20.2362,2,1,0.58,,1,7,17,7,1,8,M,,2,,,,,,,
,,,,,,,,,,1,,2024-09-24_15h34.05.625,Motor_Task,2023.2.2,Win32,59.88023952,20.2368,20.7865,4,1,0.5378,,1,8,18,8,1,9,L,,4,,,,,,,
,,,,,,,,,,1,,2024-09-24_15h34.05.625,Motor_Task,2023.2.2,Win32,59.88023952,20.7868,21.4084,1,1,0.621,,1,9,19,9,1,10,I,,1,,,,,,,
,,,,,,,,,,1,,2024-09-24_15h34.05.625,Motor_Task,2023.2.2,Win32,59.88023952,21.4088,21.9704,2,1,0.5515,,2,0,20,0,1,1,M,,2,,,,,,,
,,,,,,,,,,1,,2024-09-24_15h34.05.625,Motor_Task,2023.2.2,Win32,59.88023952,21.9708,22.5268,3,1,0.5557,,2,1,21,1,1,2,R,,3,,,,,,,
,,,,,,,,,,1,,2024-09-24_15h34.05.625,Motor_Task,2023.2.2,Win32,59.88023952,22.5271,23.0539,1,0,0.5252,,2,2,22,2,1,3,M,,2,,,,,,,
,,,,,,,,,,1,,2024-09-24_15h34.05.625,Motor_Task,2023.2.2,Win32,59.88023952,23.0544,24.1879,3,1,1.122,,2,3,23,3,1,4,R,,3,,,,,,,
,,,,,,,,,,1,,2024-09-24_15h34.05.625,Motor_Task,2023.2.2,Win32,59.88023952,24.1882,24.8222,1,1,0.6246,,2,4,24,4,1,5,I,,1,,,,,,,
,,,,,,,,,,1,,2024-09-24_15h34.05.625,Motor_Task,2023.2.2,Win32,59.88023952,24.823,25.6058,1,1,0.7721,,2,5,25,5,1,6,I,,1,,,,,,,
,,,,,,,,,,1,,2024-09-24_15h34.05.625,Motor_Task,2023.2.2,Win32,59.88023952,25.6066,26.4067,3,1,0.7888,,2,6,26,6,1,7,R,,3,,,,,,,
,,,,,,,,,,1,,2024-09-24_15h34.05.625,Motor_Task,2023.2.2,Win32,59.88023952,26.4074,27.0406,2,1,0.622,,2,7,27,7,1,8,M,,2,,,,,,,
,,,,,,,,,,1,,2024-09-24_15h34.05.625,Motor_Task,2023.2.2,Win32,59.88023952,27.0413,27.7577,4,1,0.7043,,2,8,28,8,1,9,L,,4,,,,,,,
,,,,,,,,,,1,,2024-09-24_15h34.05.625,Motor_Task,2023.2.2,Win32,59.88023952,27.758,28.4244,1,1,0.6643,,2,9,29,9,1,10,I,,1,,,,,,,
,,,,,,,,,,1,,2024-09-24_15h34.05.625,Motor_Task,2023.2.2,Win32,59.88023952,28.4247,29.0586,2,1,0.6235,,3,0,30,0,1,1,M,,2,,,,,,,
,,,,,,,,,,1,,2024-09-24_15h34.05.625,Motor_Task,2023.2.2,Win32,59.88023952,29.0589,29.6753,3,1,0.6133,,3,1,31,1,1,2,R,,3,,,,,,,
,,,,,,,,,,1,,2024-09-24_15h34.05.625,Motor_Task,2023.2.2,Win32,59.88023952,29.6761,30.3757,2,1,0.6941,,3,2,32,2,1,3,M,,2,,,,,,,
,,,,,,,,,,1,,2024-09-24_15h34.05.625,Motor_Task,2023.2.2,Win32,59.88023952,30.3761,30.9814,3,1,0.6052,,3,3,33,3,1,4,R,,3,,,,,,,
,,,,,,,,,,1,,2024-09-24_15h34.05.625,Motor_Task,2023.2.2,Win32,59.88023952,30.9818,31.6599,1,1,0.6685,,3,4,34,4,1,5,I,,1,,,,,,,
,,,,,,,,,,1,,2024-09-24_15h34.05.625,Motor_Task,2023.2.2,Win32,59.88023952,31.6606,32.3941,1,1,0.7227,,3,5,35,5,1,6,I,,1,,,,,,,
,,,,,,,,,,1,,2024-09-24_15h34.05.625,Motor_Task,2023.2.2,Win32,59.88023952,32.3945,33.079,3,1,0.6728,,3,6,36,6,1,7,R,,3,,,,,,,
,,,,,,,,,,1,,2024-09-24_15h34.05.625,Motor_Task,2023.2.2,Win32,59.88023952,33.0798,33.6793,2,1,0.5923,,3,7,37,7,1,8,M,,2,,,,,,,
,,,,,,,,,,1,,2024-09-24_15h34.05.625,Motor_Task,2023.2.2,Win32,59.88023952,33.6799,34.3288,4,1,0.6465,,3,8,38,8,1,9,L,,4,,,,,,,
,,,,,,,,,,1,,2024-09-24_15h34.05.625,Motor_Task,2023.2.2,Win32,59.88023952,34.3292,34.98,1,1,0.639,,3,9,39,9,1,10,I,,1,,,,,,,
,,,,,,,,,,1,,2024-09-24_15h34.05.625,Motor_Task,2023.2.2,Win32,59.88023952,34.9804,35.58,2,1,0.5888,,4,0,40,0,1,1,M,,2,,,,,,,
,,,,,,,,,,1,,2024-09-24_15h34.05.625,Motor_Task,2023.2.2,Win32,59.88023952,35.5807,36.1858,3,1,0.6042,,4,1,41,1,1,2,R,,3,,,,,,,
,,,,,,,,,,1,,2024-09-24_15h34.05.625,Motor_Task,2023.2.2,Win32,59.88023952,36.1863,36.8304,2,1,0.6421,,4,2,42,2,1,3,M,,2,,,,,,,
,,,,,,,,,,1,,2024-09-24_15h34.05.625,Motor_Task,2023.2.2,Win32,59.88023952,36.8307,37.3812,3,1,0.5452,,4,3,43,3,1,4,R,,3,,,,,,,
,,,,,,,,,,1,,2024-09-24_15h34.05.625,Motor_Task,2023.2.2,Win32,59.88023952,37.3821,37.9819,1,1,0.5887,,4,4,44,4,1,5,I,,1,,,,,,,
,,,,,,,,,,1,,2024-09-24_15h34.05.625,Motor_Task,2023.2.2,Win32,59.88023952,37.9825,38.8488,1,1,0.8567,,4,5,45,5,1,6,I,,1,,,,,,,
,,,,,,,,,,1,,2024-09-24_15h34.05.625,Motor_Task,2023.2.2,Win32,59.88023952,38.8493,39.4988,3,1,0.6485,,4,6,46,6,1,7,R,,3,,,,,,,
,,,,,,,,,,1,,2024-09-24_15h34.05.625,Motor_Task,2023.2.2,Win32,59.88023952,39.4991,40.1006,2,1,0.6003,,4,7,47,7,1,8,M,,2,,,,,,,
,,,,,,,,,,1,,2024-09-24_15h34.05.625,Motor_Task,2023.2.2,Win32,59.88023952,40.101,40.7163,4,1,0.6129,,4,8,48,8,1,9,L,,4,,,,,,,
,,,,,,,,,,1,,2024-09-24_15h34.05.625,Motor_Task,2023.2.2,Win32,59.88023952,40.7167,41.3173,1,1,0.5999,,4,9,49,9,1,10,I,,1,,,,,,,
,,,,,,,,,,1,,2024-09-24_15h34.05.625,Motor_Task,2023.2.2,Win32,59.88023952,41.3181,41.884,2,1,0.5646,,5,0,50,0,1,1,M,,2,,,,,,,
,,,,,,,,,,1,,2024-09-24_15h34.05.625,Motor_Task,2023.2.2,Win32,59.88023952,41.8844,42.5901,3,1,0.7054,,5,1,51,1,1,2,R,,3,,,,,,,
,,,,,,,,,,1,,2024-09-24_15h34.05.625,Motor_Task,2023.2.2,Win32,59.88023952,42.5906,43.2683,2,1,0.6668,,5,2,52,2,1,3,M,,2,,,,,,,
,,,,,,,,,,1,,2024-09-24_15h34.05.625,Motor_Task,2023.2.2,Win32,59.88023952,43.2686,44.1023,2,0,0.832,,5,3,53,3,1,4,R,,3,,,,,,,
,,,,,,,,,,1,,2024-09-24_15h34.05.625,Motor_Task,2023.2.2,Win32,59.88023952,44.1026,44.9362,1,1,0.827,,5,4,54,4,1,5,I,,1,,,,,,,
,,,,,,,,,,1,,2024-09-24_15h34.05.625,Motor_Task,2023.2.2,Win32,59.88023952,44.9366,45.6707,1,1,0.7301,,5,5,55,5,1,6,I,,1,,,,,,,
,,,,,,,,,,1,,2024-09-24_15h34.05.625,Motor_Task,2023.2.2,Win32,59.88023952,45.6712,46.2714,3,1,0.5889,,5,6,56,6,1,7,R,,3,,,,,,,
,,,,,,,,,,1,,2024-09-24_15h34.05.625,Motor_Task,2023.2.2,Win32,59.88023952,46.2719,46.8553,2,1,0.5753,,5,7,57,7,1,8,M,,2,,,,,,,
,,,,,,,,,,1,,2024-09-24_15h34.05.625,Motor_Task,2023.2.2,Win32,59.88023952,46.8557,47.5887,4,1,0.7221,,5,8,58,8,1,9,L,,4,,,,,,,
,,,,,,,,,,1,,2024-09-24_15h34.05.625,Motor_Task,2023.2.2,Win32,59.88023952,47.5891,48.239,1,1,0.6451,,5,9,59,9,1,10,I,,1,,,,,,,
,,,,,,,,,,1,,2024-09-24_15h34.05.625,Motor_Task,2023.2.2,Win32,59.88023952,48.2394,48.913,2,1,0.673,,6,0,60,0,1,1,M,,2,,,,,,,
,,,,,,,,,,1,,2024-09-24_15h34.05.625,Motor_Task,2023.2.2,Win32,59.88023952,48.9135,49.7565,3,1,0.8358,,6,1,61,1,1,2,R,,3,,,,,,,
,,,,,,,,,,1,,2024-09-24_15h34.05.625,Motor_Task,2023.2.2,Win32,59.88023952,49.7573,50.4126,2,1,0.6549,,6,2,62,2,1,3,M,,2,,,,,,,
,,,,,,,,,,1,,2024-09-24_15h34.05.625,Motor_Task,2023.2.2,Win32,59.88023952,50.4129,50.9972,3,1,0.5837,,6,3,63,3,1,4,R,,3,,,,,,,
,,,,,,,,,,1,,2024-09-24_15h34.05.625,Motor_Task,2023.2.2,Win32,59.88023952,50.9979,51.541,1,1,0.5388,,6,4,64,4,1,5,I,,1,,,,,,,
,,,,,,,,,,1,,2024-09-24_15h34.05.625,Motor_Task,2023.2.2,Win32,59.88023952,51.5413,52.0753,1,1,0.5231,,6,5,65,5,1,6,I,,1,,,,,,,
,,,,,,,,,,1,,2024-09-24_15h34.05.625,Motor_Task,2023.2.2,Win32,59.88023952,52.0758,52.6588,3,1,0.5776,,6,6,66,6,1,7,R,,3,,,,,,,
,,,,,,,,,,1,,2024-09-24_15h34.05.625,Motor_Task,2023.2.2,Win32,59.88023952,52.6597,53.1755,2,1,0.5119,,6,7,67,7,1,8,M,,2,,,,,,,
,,,,,,,,,,1,,2024-09-24_15h34.05.625,Motor_Task,2023.2.2,Win32,59.88023952,53.176,53.7597,4,1,0.5728,,6,8,68,8,1,9,L,,4,,,,,,,
,,,,,,,,,,1,,2024-09-24_15h34.05.625,Motor_Task,2023.2.2,Win32,59.88023952,53.7601,54.3428,1,1,0.5724,,6,9,69,9,1,10,I,,1,,,,,,,
,,,,,,,,,,1,,2024-09-24_15h34.05.625,Motor_Task,2023.2.2,Win32,59.88023952,54.3432,54.8275,2,1,0.4726,,7,0,70,0,1,1,M,,2,,,,,,,
,,,,,,,,,,1,,2024-09-24_15h34.05.625,Motor_Task,2023.2.2,Win32,59.88023952,54.8281,55.294,3,1,0.4638,,7,1,71,1,1,2,R,,3,,,,,,,
,,,,,,,,,,1,,2024-09-24_15h34.05.625,Motor_Task,2023.2.2,Win32,59.88023952,55.2943,55.777,1,0,0.48,,7,2,72,2,1,3,M,,2,,,,,,,
,,,,,,,,,,1,,2024-09-24_15h34.05.625,Motor_Task,2023.2.2,Win32,59.88023952,55.7772,56.4444,3,1,0.666,,7,3,73,3,1,4,R,,3,,,,,,,
,,,,,,,,,,1,,2024-09-24_15h34.05.625,Motor_Task,2023.2.2,Win32,59.88023952,56.4448,57.1168,1,1,0.6716,,7,4,74,4,1,5,I,,1,,,,,,,
,,,,,,,,,,1,,2024-09-24_15h34.05.625,Motor_Task,2023.2.2,Win32,59.88023952,57.1171,57.7783,1,1,0.6511,,7,5,75,5,1,6,I,,1,,,,,,,
,,,,,,,,,,1,,2024-09-24_15h34.05.625,Motor_Task,2023.2.2,Win32,59.88023952,57.7788,59.0135,2,0,1.2256,,7,6,76,6,1,7,R,,3,,,,,,,
,,,,,,,,,,1,,2024-09-24_15h34.05.625,Motor_Task,2023.2.2,Win32,59.88023952,59.014,60.2478,2,1,1.2258,,7,7,77,7,1,8,M,,2,,,,,,,
,,,,,,,,,,1,,2024-09-24_15h34.05.625,Motor_Task,2023.2.2,Win32,59.88023952,60.2486,60.9977,4,1,0.7374,,7,8,78,8,1,9,L,,4,,,,,,,
,,,,,,,,,,1,,2024-09-24_15h34.05.625,Motor_Task,2023.2.2,Win32,59.88023952,60.9984,61.6483,1,1,0.6387,,7,9,79,9,1,10,I,,1,,,,,,,
,,,,,,,,,,1,,2024-09-24_15h34.05.625,Motor_Task,2023.2.2,Win32,59.88023952,61.6488,62.332,2,1,0.6815,,8,0,80,0,1,1,M,,2,,,,,,,
,,,,,,,,,,1,,2024-09-24_15h34.05.625,Motor_Task,2023.2.2,Win32,59.88023952,62.3326,63.139,3,1,0.8058,,8,1,81,1,1,2,R,,3,,,,,,,
,,,,,,,,,,1,,2024-09-24_15h34.05.625,Motor_Task,2023.2.2,Win32,59.88023952,63.1394,63.7672,2,1,0.6157,,8,2,82,2,1,3,M,,2,,,,,,,
,,,,,,,,,,1,,2024-09-24_15h34.05.625,Motor_Task,2023.2.2,Win32,59.88023952,63.7675,64.3836,3,1,0.6153,,8,3,83,3,1,4,R,,3,,,,,,,
,,,,,,,,,,1,,2024-09-24_15h34.05.625,Motor_Task,2023.2.2,Win32,59.88023952,64.3841,65.0339,1,1,0.6389,,8,4,84,4,1,5,I,,1,,,,,,,
,,,,,,,,,,1,,2024-09-24_15h34.05.625,Motor_Task,2023.2.2,Win32,59.88023952,65.0343,65.6573,1,1,0.6227,,8,5,85,5,1,6,I,,1,,,,,,,
,,,,,,,,,,1,,2024-09-24_15h34.05.625,Motor_Task,2023.2.2,Win32,59.88023952,65.6576,66.2683,3,1,0.5996,,8,6,86,6,1,7,R,,3,,,,,,,
,,,,,,,,,,1,,2024-09-24_15h34.05.625,Motor_Task,2023.2.2,Win32,59.88023952,66.2689,66.8856,2,1,0.6122,,8,7,87,7,1,8,M,,2,,,,,,,
,,,,,,,,,,1,,2024-09-24_15h34.05.625,Motor_Task,2023.2.2,Win32,59.88023952,66.8861,67.5192,4,1,0.6226,,8,8,88,8,1,9,L,,4,,,,,,,
,,,,,,,,,,1,,2024-09-24_15h34.05.625,Motor_Task,2023.2.2,Win32,59.88023952,67.52,68.1361,1,1,0.6091,,8,9,89,9,1,10,I,,1,,,,,,,
,,,,,,,,,,1,,2024-09-24_15h34.05.625,Motor_Task,2023.2.2,Win32,59.88023952,68.1373,68.6751,2,1,0.5372,,9,0,90,0,1,1,M,,2,,,,,,,
,,,,,,,,,,1,,2024-09-24_15h34.05.625,Motor_Task,2023.2.2,Win32,59.88023952,68.6754,69.2043,3,1,0.5217,,9,1,91,1,1,2,R,,3,,,,,,,
,,,,,,,,,,1,,2024-09-24_15h34.05.625,Motor_Task,2023.2.2,Win32,59.88023952,69.2049,69.8538,2,1,0.6373,,9,2,92,2,1,3,M,,2,,,,,,,
,,,,,,,,,,1,,2024-09-24_15h34.05.625,Motor_Task,2023.2.2,Win32,59.88023952,69.8542,70.3879,3,1,0.5243,,9,3,93,3,1,4,R,,3,,,,,,,
,,,,,,,,,,1,,2024-09-24_15h34.05.625,Motor_Task,2023.2.2,Win32,59.88023952,70.3883,70.9722,1,1,0.5765,,9,4,94,4,1,5,I,,1,,,,,,,
,,,,,,,,,,1,,2024-09-24_15h34.05.625,Motor_Task,2023.2.2,Win32,59.88023952,70.9728,71.6277,1,1,0.6545,,9,5,95,5,1,6,I,,1,,,,,,,
,,,,,,,,,,1,,2024-09-24_15h34.05.625,Motor_Task,2023.2.2,Win32,59.88023952,71.628,72.3059,3,1,0.6774,,9,6,96,6,1,7,R,,3,,,,,,,
,,,,,,,,,,1,,2024-09-24_15h34.05.625,Motor_Task,2023.2.2,Win32,59.88023952,72.3063,72.9064,2,1,0.5898,,9,7,97,7,1,8,M,,2,,,,,,,
,,,,,,,,,,1,,2024-09-24_15h34.05.625,Motor_Task,2023.2.2,Win32,59.88023952,72.9071,73.5733,4,1,0.6569,,9,8,98,8,1,9,L,,4,,,,,,,
,,,,,,,,,,1,,2024-09-24_15h34.05.625,Motor_Task,2023.2.2,Win32,59.88023952,73.5742,74.2303,1,1,0.6553,,9,9,99,9,1,10,I,,1,,,,,,,
,,,,,,,,,,1,,2024-09-24_15h34.05.625,Motor_Task,2023.2.2,Win32,59.88023952,74.2306,74.7752,2,1,0.5324,,10,0,100,0,1,1,M,,2,,,,,,,
,,,,,,,,,,1,,2024-09-24_15h34.05.625,Motor_Task,2023.2.2,Win32,59.88023952,74.7756,75.3132,3,1,0.537,,10,1,101,1,1,2,R,,3,,,,,,,
,,,,,,,,,,1,,2024-09-24_15h34.05.625,Motor_Task,2023.2.2,Win32,59.88023952,75.3135,76.1247,2,1,0.805,,10,2,102,2,1,3,M,,2,,,,,,,
,,,,,,,,,,1,,2024-09-24_15h34.05.625,Motor_Task,2023.2.2,Win32,59.88023952,76.125,76.7593,3,1,0.6272,,10,3,103,3,1,4,R,,3,,,,,,,
,,,,,,,,,,1,,2024-09-24_15h34.05.625,Motor_Task,2023.2.2,Win32,59.88023952,76.7602,77.3267,1,1,0.5568,,10,4,104,4,1,5,I,,1,,,,,,,
,,,,,,,,,,1,,2024-09-24_15h34.05.625,Motor_Task,2023.2.2,Win32,59.88023952,77.3273,78.4607,1,1,1.1329,,10,5,105,5,1,6,I,,1,,,,,,,
,,,,,,,,,,1,,2024-09-24_15h34.05.625,Motor_Task,2023.2.2,Win32,59.88023952,78.4612,79.0943,3,1,0.6285,,10,6,106,6,1,7,R,,3,,,,,,,
,,,,,,,,,,1,,2024-09-24_15h34.05.625,Motor_Task,2023.2.2,Win32,59.88023952,79.0947,79.7948,2,1,0.6979,,10,7,107,7,1,8,M,,2,,,,,,,
,,,,,,,,,,1,,2024-09-24_15h34.05.625,Motor_Task,2023.2.2,Win32,59.88023952,79.7951,80.595,4,1,0.7965,,10,8,108,8,1,9,L,,4,,,,,,,
,,,,,,,,,,1,,2024-09-24_15h34.05.625,Motor_Task,2023.2.2,Win32,59.88023952,80.5954,81.2126,1,1,0.6052,,10,9,109,9,1,10,I,,1,,,,,,,
,,,,,,,,,,1,,2024-09-24_15h34.05.625,Motor_Task,2023.2.2,Win32,59.88023952,81.2129,81.7793,2,1,0.5556,,11,0,110,0,1,1,M,,2,,,,,,,
,,,,,,,,,,1,,2024-09-24_15h34.05.625,Motor_Task,2023.2.2,Win32,59.88023952,81.7796,82.3295,3,1,0.5409,,11,1,111,1,1,2,R,,3,,,,,,,
,,,,,,,,,,1,,2024-09-24_15h34.05.625,Motor_Task,2023.2.2,Win32,59.88023952,82.33,82.947,2,1,0.6054,,11,2,112,2,1,3,M,,2,,,,,,,
,,,,,,,,,,1,,2024-09-24_15h34.05.625,Motor_Task,2023.2.2,Win32,59.88023952,82.9476,83.5498,3,1,0.6016,,11,3,113,3,1,4,R,,3,,,,,,,
,,,,,,,,,,1,,2024-09-24_15h34.05.625,Motor_Task,2023.2.2,Win32,59.88023952,83.5502,84.0641,1,1,0.5124,,11,4,114,4,1,5,I,,1,,,,,,,
,,,,,,,,,,1,,2024-09-24_15h34.05.625,Motor_Task,2023.2.2,Win32,59.88023952,84.0644,84.6365,1,1,0.5718,,11,5,115,5,1,6,I,,1,,,,,,,
,,,,,,,,,,1,,2024-09-24_15h34.05.625,Motor_Task,2023.2.2,Win32,59.88023952,84.6367,85.3316,3,1,0.6837,,11,6,116,6,1,7,R,,3,,,,,,,
,,,,,,,,,,1,,2024-09-24_15h34.05.625,Motor_Task,2023.2.2,Win32,59.88023952,85.332,85.8984,2,1,0.5547,,11,7,117,7,1,8,M,,2,,,,,,,
,,,,,,,,,,1,,2024-09-24_15h34.05.625,Motor_Task,2023.2.2,Win32,59.88023952,85.8985,86.5487,4,1,0.6479,,11,8,118,8,1,9,L,,4,,,,,,,
,,,,,,,,,,1,,2024-09-24_15h34.05.625,Motor_Task,2023.2.2,Win32,59.88023952,86.549,87.1691,1,1,0.6198,,11,9,119,9,1,10,I,,1,,,,,,,
,,,,,,,,,,1,,2024-09-24_15h34.05.625,Motor_Task,2023.2.2,Win32,59.88023952,87.1693,87.7229,2,1,0.5534,,12,0,120,0,1,1,M,,2,,,,,,,
,,,,,,,,,,1,,2024-09-24_15h34.05.625,Motor_Task,2023.2.2,Win32,59.88023952,87.7231,88.2335,3,1,0.5085,,12,1,121,1,1,2,R,,3,,,,,,,
,,,,,,,,,,1,,2024-09-24_15h34.05.625,Motor_Task,2023.2.2,Win32,59.88023952,88.2338,88.8007,2,1,0.5569,,12,2,122,2,1,3,M,,2,,,,,,,
,,,,,,,,,,1,,2024-09-24_15h34.05.625,Motor_Task,2023.2.2,Win32,59.88023952,88.801,89.3342,3,1,0.525,,12,3,123,3,1,4,R,,3,,,,,,,
,,,,,,,,,,1,,2024-09-24_15h34.05.625,Motor_Task,2023.2.2,Win32,59.88023952,89.3347,89.9183,1,1,0.5771,,12,4,124,4,1,5,I,,1,,,,,,,
,,,,,,,,,,1,,2024-09-24_15h34.05.625,Motor_Task,2023.2.2,Win32,59.88023952,89.9187,90.5188,1,1,0.5885,,12,5,125,5,1,6,I,,1,,,,,,,
,,,,,,,,,,1,,2024-09-24_15h34.05.625,Motor_Task,2023.2.2,Win32,59.88023952,90.5194,91.1358,3,1,0.6129,,12,6,126,6,1,7,R,,3,,,,,,,
,,,,,,,,,,1,,2024-09-24_15h34.05.625,Motor_Task,2023.2.2,Win32,59.88023952,91.1362,91.6871,2,1,0.5393,,12,7,127,7,1,8,M,,2,,,,,,,
,,,,,,,,,,1,,2024-09-24_15h34.05.625,Motor_Task,2023.2.2,Win32,59.88023952,91.6877,92.2697,4,1,0.5725,,12,8,128,8,1,9,L,,4,,,,,,,
,,,,,,,,,,1,,2024-09-24_15h34.05.625,Motor_Task,2023.2.2,Win32,59.88023952,92.2705,92.8542,1,1,0.5799,,12,9,129,9,1,10,I,,1,,,,,,,
,,,,,,,,,,1,,2024-09-24_15h34.05.625,Motor_Task,2023.2.2,Win32,59.88023952,92.8545,93.4269,2,1,0.5718,,13,0,130,0,1,1,M,,2,,,,,,,
,,,,,,,,,,1,,2024-09-24_15h34.05.625,Motor_Task,2023.2.2,Win32,59.88023952,93.4273,94.0377,3,1,0.6099,,13,1,131,1,1,2,R,,3,,,,,,,
,,,,,,,,,,1,,2024-09-24_15h34.05.625,Motor_Task,2023.2.2,Win32,59.88023952,94.0381,94.6058,2,1,0.5557,,13,2,132,2,1,3,M,,2,,,,,,,
,,,,,,,,,,1,,2024-09-24_15h34.05.625,Motor_Task,2023.2.2,Win32,59.88023952,94.6062,95.1391,3,1,0.5288,,13,3,133,3,1,4,R,,3,,,,,,,
,,,,,,,,,,1,,2024-09-24_15h34.05.625,Motor_Task,2023.2.2,Win32,59.88023952,95.1398,95.656,1,1,0.5044,,13,4,134,4,1,5,I,,1,,,,,,,
,,,,,,,,,,1,,2024-09-24_15h34.05.625,Motor_Task,2023.2.2,Win32,59.88023952,95.6567,96.2228,1,1,0.5555,,13,5,135,5,1,6,I,,1,,,,,,,
,,,,,,,,,,1,,2024-09-24_15h34.05.625,Motor_Task,2023.2.2,Win32,59.88023952,96.2234,96.823,3,1,0.5902,,13,6,136,6,1,7,R,,3,,,,,,,
,,,,,,,,,,1,,2024-09-24_15h34.05.625,Motor_Task,2023.2.2,Win32,59.88023952,96.8233,97.3906,2,1,0.5583,,13,7,137,7,1,8,M,,2,,,,,,,
,,,,,,,,,,1,,2024-09-24_15h34.05.625,Motor_Task,2023.2.2,Win32,59.88023952,97.391,97.9578,4,1,0.5598,,13,8,138,8,1,9,L,,4,,,,,,,
,,,,,,,,,,1,,2024-09-24_15h34.05.625,Motor_Task,2023.2.2,Win32,59.88023952,97.9584,98.6411,1,1,0.6715,,13,9,139,9,1,10,I,,1,,,,,,,
,,,,,,,,,,1,,2024-09-24_15h34.05.625,Motor_Task,2023.2.2,Win32,59.88023952,98.6417,99.2747,2,1,0.6301,,14,0,140,0,1,1,M,,2,,,,,,,
,,,,,,,,,,1,,2024-09-24_15h34.05.625,Motor_Task,2023.2.2,Win32,59.88023952,99.2751,99.7752,3,1,0.4978,,14,1,141,1,1,2,R,,3,,,,,,,
,,,,,,,,,,1,,2024-09-24_15h34.05.625,Motor_Task,2023.2.2,Win32,59.88023952,99.7757,100.3092,2,1,0.533,,14,2,142,2,1,3,M,,2,,,,,,,
,,,,,,,,,,1,,2024-09-24_15h34.05.625,Motor_Task,2023.2.2,Win32,59.88023952,100.3096,100.8427,3,1,0.5283,,14,3,143,3,1,4,R,,3,,,,,,,
,,,,,,,,,,1,,2024-09-24_15h34.05.625,Motor_Task,2023.2.2,Win32,59.88023952,100.8433,101.3928,1,1,0.5404,,14,4,144,4,1,5,I,,1,,,,,,,
,,,,,,,,,,1,,2024-09-24_15h34.05.625,Motor_Task,2023.2.2,Win32,59.88023952,101.3932,101.9603,1,1,0.5563,,14,5,145,5,1,6,I,,1,,,,,,,
,,,,,,,,,,1,,2024-09-24_15h34.05.625,Motor_Task,2023.2.2,Win32,59.88023952,101.9607,102.6834,3,1,0.7223,,14,6,146,6,1,7,R,,3,,,,,,,
,,,,,,,,,,1,,2024-09-24_15h34.05.625,Motor_Task,2023.2.2,Win32,59.88023952,102.6836,103.1946,2,1,0.5058,,14,7,147,7,1,8,M,,2,,,,,,,
,,,,,,,,,,1,,2024-09-24_15h34.05.625,Motor_Task,2023.2.2,Win32,59.88023952,103.1949,103.7955,4,1,0.5963,,14,8,148,8,1,9,L,,4,,,,,,,
,,,,,,,,,,1,,2024-09-24_15h34.05.625,Motor_Task,2023.2.2,Win32,59.88023952,103.7958,104.4457,1,1,0.6415,,14,9,149,9,1,10,I,,1,,,,,,,
,,,,,,,,,,1,,2024-09-24_15h34.05.625,Motor_Task,2023.2.2,Win32,59.88023952,104.4463,104.9837,2,1,0.537,,15,0,150,0,1,1,M,,2,,,,,,,
,,,,,,,,,,1,,2024-09-24_15h34.05.625,Motor_Task,2023.2.2,Win32,59.88023952,104.984,105.5131,3,1,0.5286,,15,1,151,1,1,2,R,,3,,,,,,,
,,,,,,,,,,1,,2024-09-24_15h34.05.625,Motor_Task,2023.2.2,Win32,59.88023952,105.5135,106.0634,2,1,0.5418,,15,2,152,2,1,3,M,,2,,,,,,,
,,,,,,,,,,1,,2024-09-24_15h34.05.625,Motor_Task,2023.2.2,Win32,59.88023952,106.0638,106.6302,3,1,0.5557,,15,3,153,3,1,4,R,,3,,,,,,,
,,,,,,,,,,1,,2024-09-24_15h34.05.625,Motor_Task,2023.2.2,Win32,59.88023952,106.6306,107.2643,1,1,0.6224,,15,4,154,4,1,5,I,,1,,,,,,,
,,,,,,,,,,1,,2024-09-24_15h34.05.625,Motor_Task,2023.2.2,Win32,59.88023952,107.2653,107.8141,1,1,0.547,,15,5,155,5,1,6,I,,1,,,,,,,
,,,,,,,,,,1,,2024-09-24_15h34.05.625,Motor_Task,2023.2.2,Win32,59.88023952,107.8143,108.4367,3,1,0.622,,15,6,156,6,1,7,R,,3,,,,,,,
,,,,,,,,,,1,,2024-09-24_15h34.05.625,Motor_Task,2023.2.2,Win32,59.88023952,108.437,109.0155,2,1,0.5721,,15,7,157,7,1,8,M,,2,,,,,,,
,,,,,,,,,,1,,2024-09-24_15h34.05.625,Motor_Task,2023.2.2,Win32,59.88023952,109.016,109.7998,4,1,0.7757,,15,8,158,8,1,9,L,,4,,,,,,,
,,,,,,,,,,1,,2024-09-24_15h34.05.625,Motor_Task,2023.2.2,Win32,59.88023952,109.8004,110.3996,1,1,0.5883,,15,9,159,9,1,10,I,,1,,,,,,,
,,,,,,,,,,1,,2024-09-24_15h34.05.625,Motor_Task,2023.2.2,Win32,59.88023952,110.4002,111.0232,2,1,0.6226,,16,0,160,0,1,1,M,,2,,,,,,,
,,,,,,,,,,1,,2024-09-24_15h34.05.625,Motor_Task,2023.2.2,Win32,59.88023952,111.0235,111.5004,3,1,0.4676,,16,1,161,1,1,2,R,,3,,,,,,,
,,,,,,,,,,1,,2024-09-24_15h34.05.625,Motor_Task,2023.2.2,Win32,59.88023952,111.5011,112.1175,2,1,0.6069,,16,2,162,2,1,3,M,,2,,,,,,,
,,,,,,,,,,1,,2024-09-24_15h34.05.625,Motor_Task,2023.2.2,Win32,59.88023952,112.118,112.751,3,1,0.6229,,16,3,163,3,1,4,R,,3,,,,,,,
,,,,,,,,,,1,,2024-09-24_15h34.05.625,Motor_Task,2023.2.2,Win32,59.88023952,112.7512,113.368,1,1,0.6071,,16,4,164,4,1,5,I,,1,,,,,,,
,,,,,,,,,,1,,2024-09-24_15h34.05.625,Motor_Task,2023.2.2,Win32,59.88023952,113.3686,114.0023,1,1,0.6254,,16,5,165,5,1,6,I,,1,,,,,,,
,,,,,,,,,,1,,2024-09-24_15h34.05.625,Motor_Task,2023.2.2,Win32,59.88023952,114.0027,114.6024,3,1,0.5948,,16,6,166,6,1,7,R,,3,,,,,,,
,,,,,,,,,,1,,2024-09-24_15h34.05.625,Motor_Task,2023.2.2,Win32,59.88023952,114.6029,115.1699,2,1,0.5653,,16,7,167,7,1,8,M,,2,,,,,,,
,,,,,,,,,,1,,2024-09-24_15h34.05.625,Motor_Task,2023.2.2,Win32,59.88023952,115.1702,115.8201,4,1,0.6383,,16,8,168,8,1,9,L,,4,,,,,,,
,,,,,,,,,,1,,2024-09-24_15h34.05.625,Motor_Task,2023.2.2,Win32,59.88023952,115.8207,116.3701,1,1,0.54,,16,9,169,9,1,10,I,,1,,,,,,,
,,,,,,,,,,1,,2024-09-24_15h34.05.625,Motor_Task,2023.2.2,Win32,59.88023952,116.3704,117.1099,2,1,0.7392,,17,0,170,0,1,1,M,,2,,,,,,,
,,,,,,,,,,1,,2024-09-24_15h34.05.625,Motor_Task,2023.2.2,Win32,59.88023952,117.1101,117.5213,3,1,0.402,,17,1,171,1,1,2,R,,3,,,,,,,
,,,,,,,,,,1,,2024-09-24_15h34.05.625,Motor_Task,2023.2.2,Win32,59.88023952,117.5221,118.0885,2,1,0.5584,,17,2,172,2,1,3,M,,2,,,,,,,
,,,,,,,,,,1,,2024-09-24_15h34.05.625,Motor_Task,2023.2.2,Win32,59.88023952,118.089,118.7054,3,1,0.609,,17,3,173,3,1,4,R,,3,,,,,,,
,,,,,,,,,,1,,2024-09-24_15h34.05.625,Motor_Task,2023.2.2,Win32,59.88023952,118.7058,119.2892,1,1,0.5828,,17,4,174,4,1,5,I,,1,,,,,,,
,,,,,,,,,,1,,2024-09-24_15h34.05.625,Motor_Task,2023.2.2,Win32,59.88023952,119.2896,119.8454,1,1,0.5554,,17,5,175,5,1,6,I,,1,,,,,,,
,,,,,,,,,,1,,2024-09-24_15h34.05.625,Motor_Task,2023.2.2,Win32,59.88023952,119.8456,120.5121,3,1,0.6664,,17,6,176,6,1,7,R,,3,,,,,,,
,,,,,,,,,,1,,2024-09-24_15h34.05.625,Motor_Task,2023.2.2,Win32,59.88023952,120.5124,121.1244,2,1,0.6058,,17,7,177,7,1,8,M,,2,,,,,,,
,,,,,,,,,,1,,2024-09-24_15h34.05.625,Motor_Task,2023.2.2,Win32,59.88023952,121.1251,122.1575,4,1,1.0231,,17,8,178,8,1,9,L,,4,,,,,,,
,,,,,,,,,,1,,2024-09-24_15h34.05.625,Motor_Task,2023.2.2,Win32,59.88023952,122.1579,122.958,1,1,0.798,,17,9,179,9,1,10,I,,1,,,,,,,
,,,,,,,,,,1,,2024-09-24_15h34.05.625,Motor_Task,2023.2.2,Win32,59.88023952,122.9583,123.8256,2,1,0.8581,,18,0,180,0,1,1,M,,2,,,,,,,
,,,,,,,,,,1,,2024-09-24_15h34.05.625,Motor_Task,2023.2.2,Win32,59.88023952,123.8259,124.4157,3,1,0.5896,,18,1,181,1,1,2,R,,3,,,,,,,
,,,,,,,,,,1,,2024-09-24_15h34.05.625,Motor_Task,2023.2.2,Win32,59.88023952,124.416,125.0098,2,1,0.5901,,18,2,182,2,1,3,M,,2,,,,,,,
,,,,,,,,,,1,,2024-09-24_15h34.05.625,Motor_Task,2023.2.2,Win32,59.88023952,125.0101,125.7111,3,1,0.6959,,18,3,183,3,1,4,R,,3,,,,,,,
,,,,,,,,,,1,,2024-09-24_15h34.05.625,Motor_Task,2023.2.2,Win32,59.88023952,125.7117,126.3608,1,1,0.6448,,18,4,184,4,1,5,I,,1,,,,,,,
,,,,,,,,,,1,,2024-09-24_15h34.05.625,Motor_Task,2023.2.2,Win32,59.88023952,126.3611,127.0444,1,1,0.683,,18,5,185,5,1,6,I,,1,,,,,,,
,,,,,,,,,,1,,2024-09-24_15h34.05.625,Motor_Task,2023.2.2,Win32,59.88023952,127.0446,127.8286,3,1,0.7732,,18,6,186,6,1,7,R,,3,,,,,,,
,,,,,,,,,,1,,2024-09-24_15h34.05.625,Motor_Task,2023.2.2,Win32,59.88023952,127.829,128.5125,2,1,0.6739,,18,7,187,7,1,8,M,,2,,,,,,,
,,,,,,,,,,1,,2024-09-24_15h34.05.625,Motor_Task,2023.2.2,Win32,59.88023952,128.5129,129.3962,4,1,0.8722,,18,8,188,8,1,9,L,,4,,,,,,,
,,,,,,,,,,1,,2024-09-24_15h34.05.625,Motor_Task,2023.2.2,Win32,59.88023952,129.3965,129.9684,1,1,0.5716,,18,9,189,9,1,10,I,,1,,,,,,,
,,,,,,,,,,1,,2024-09-24_15h34.05.625,Motor_Task,2023.2.2,Win32,59.88023952,129.9687,130.7472,2,1,0.7681,,19,0,190,0,1,1,M,,2,,,,,,,
,,,,,,,,,,1,,2024-09-24_15h34.05.625,Motor_Task,2023.2.2,Win32,59.88023952,130.7477,131.2977,3,1,0.5408,,19,1,191,1,1,2,R,,3,,,,,,,
,,,,,,,,,,1,,2024-09-24_15h34.05.625,Motor_Task,2023.2.2,Win32,59.88023952,131.2981,131.881,2,1,0.5796,,19,2,192,2,1,3,M,,2,,,,,,,
,,,,,,,,,,1,,2024-09-24_15h34.05.625,Motor_Task,2023.2.2,Win32,59.88023952,131.8814,132.515,3,1,0.6234,,19,3,193,3,1,4,R,,3,,,,,,,
,,,,,,,,,,1,,2024-09-24_15h34.05.625,Motor_Task,2023.2.2,Win32,59.88023952,132.5153,133.1158,1,1,0.5964,,19,4,194,4,1,5,I,,1,,,,,,,
,,,,,,,,,,1,,2024-09-24_15h34.05.625,Motor_Task,2023.2.2,Win32,59.88023952,133.1162,133.6672,1,1,0.5448,,19,5,195,5,1,6,I,,1,,,,,,,
,,,,,,,,,,1,,2024-09-24_15h34.05.625,Motor_Task,2023.2.2,Win32,59.88023952,133.6677,134.4169,3,1,0.7382,,19,6,196,6,1,7,R,,3,,,,,,,
,,,,,,,,,,1,,2024-09-24_15h34.05.625,Motor_Task,2023.2.2,Win32,59.88023952,134.4175,134.9505,2,1,0.5213,,19,7,197,7,1,8,M,,2,,,,,,,
,,,,,,,,,,1,,2024-09-24_15h34.05.625,Motor_Task,2023.2.2,Win32,59.88023952,134.951,135.8182,4,1,0.8576,,19,8,198,8,1,9,L,,4,,,,,,,
,,,,,,,,,,1,,2024-09-24_15h34.05.625,Motor_Task,2023.2.2,Win32,59.88023952,135.8186,136.4013,1,1,0.5727,,19,9,199,9,1,10,I,,1,,,,,,,
,,,,,,,,,,1,,2024-09-24_15h34.05.625,Motor_Task,2023.2.2,Win32,59.88023952,136.4081,137.0517,3,1,0.6373,,,,,,,7,R,,3,0,0,0,6,1,,
,,,,,,,,,,1,,2024-09-24_15h34.05.625,Motor_Task,2023.2.2,Win32,59.88023952,137.0522,137.636,2,1,0.5833,,,,,,,8,M,,2,0,1,1,7,1,,
,,,,,,,,,,1,,2024-09-24_15h34.05.625,Motor_Task,2023.2.2,Win32,59.88023952,137.6364,138.386,4,1,0.7377,,,,,,,9,L,,4,0,2,2,8,1,,
,,,,,,,,,,1,,2024-09-24_15h34.05.625,Motor_Task,2023.2.2,Win32,59.88023952,138.3864,138.9864,1,1,0.5978,,,,,,,6,I,,1,0,3,3,5,1,,
,,,,,,,,,,1,,2024-09-24_15h34.05.625,Motor_Task,2023.2.2,Win32,59.88023952,138.9866,139.7922,3,1,0.8052,,,,,,,2,R,,3,0,4,4,1,1,,
,,,,,,,,,,1,,2024-09-24_15h34.05.625,Motor_Task,2023.2.2,Win32,59.88023952,139.7925,140.5206,1,1,0.7268,,,,,,,10,I,,1,0,5,5,9,1,,
,,,,,,,,,,1,,2024-09-24_15h34.05.625,Motor_Task,2023.2.2,Win32,59.88023952,140.5209,141.3382,2,1,0.8169,,,,,,,1,M,,2,0,6,6,0,1,,
,,,,,,,,,,1,,2024-09-24_15h34.05.625,Motor_Task,2023.2.2,Win32,59.88023952,141.3394,141.9442,2,1,0.6045,,,,,,,3,M,,2,0,7,7,2,1,,
,,,,,,,,,,1,,2024-09-24_15h34.05.625,Motor_Task,2023.2.2,Win32,59.88023952,141.9444,142.5893,1,1,0.6336,,,,,,,5,I,,1,0,8,8,4,1,,
,,,,,,,,,,1,,2024-09-24_15h34.05.625,Motor_Task,2023.2.2,Win32,59.88023952,142.5898,143.1063,3,1,0.5046,,,,,,,4,R,,3,0,9,9,3,1,,
,,,,,,,,,,1,,2024-09-24_15h34.05.625,Motor_Task,2023.2.2,Win32,59.88023952,143.1067,143.7566,1,1,0.6471,,,,,,,10,I,,1,1,0,10,9,1,,
,,,,,,,,,,1,,2024-09-24_15h34.05.625,Motor_Task,2023.2.2,Win32,59.88023952,143.7572,144.3905,3,1,0.6265,,,,,,,7,R,,3,1,1,11,6,1,,
,,,,,,,,,,1,,2024-09-24_15h34.05.625,Motor_Task,2023.2.2,Win32,59.88023952,144.3908,145.0744,3,1,0.674,,,,,,,4,R,,3,1,2,12,3,1,,
,,,,,,,,,,1,,2024-09-24_15h34.05.625,Motor_Task,2023.2.2,Win32,59.88023952,145.0749,145.6802,2,1,0.6049,,,,,,,1,M,,2,1,3,13,0,1,,
,,,,,,,,,,1,,2024-09-24_15h34.05.625,Motor_Task,2023.2.2,Win32,59.88023952,145.6805,146.2254,3,1,0.5341,,,,,,,2,R,,3,1,4,14,1,1,,
,,,,,,,,,,1,,2024-09-24_15h34.05.625,Motor_Task,2023.2.2,Win32,59.88023952,146.226,146.9143,2,1,0.6878,,,,,,,3,M,,2,1,5,15,2,1,,
,,,,,,,,,,1,,2024-09-24_15h34.05.625,Motor_Task,2023.2.2,Win32,59.88023952,146.9148,147.497,1,1,0.5818,,,,,,,6,I,,1,1,6,16,5,1,,
,,,,,,,,,,1,,2024-09-24_15h34.05.625,Motor_Task,2023.2.2,Win32,59.88023952,147.4973,148.2097,4,1,0.7092,,,,,,,9,L,,4,1,7,17,8,1,,
,,,,,,,,,,1,,2024-09-24_15h34.05.625,Motor_Task,2023.2.2,Win32,59.88023952,148.2102,149.0599,2,1,0.8466,,,,,,,8,M,,2,1,8,18,7,1,,
,,,,,,,,,,1,,2024-09-24_15h34.05.625,Motor_Task,2023.2.2,Win32,59.88023952,149.0603,149.6103,1,1,0.5419,,,,,,,5,I,,1,1,9,19,4,1,,
,,,,,,,,,,1,,2024-09-24_15h34.05.625,Motor_Task,2023.2.2,Win32,59.88023952,149.611,150.1446,1,1,0.5283,,,,,,,6,I,,1,2,0,20,5,1,,
,,,,,,,,,,1,,2024-09-24_15h34.05.625,Motor_Task,2023.2.2,Win32,59.88023952,150.1451,150.7117,3,1,0.5627,,,,,,,4,R,,3,2,1,21,3,1,,
,,,,,,,,,,1,,2024-09-24_15h34.05.625,Motor_Task,2023.2.2,Win32,59.88023952,150.7122,151.3127,1,1,0.5881,,,,,,,10,I,,1,2,2,22,9,1,,
,,,,,,,,,,1,,2024-09-24_15h34.05.625,Motor_Task,2023.2.2,Win32,59.88023952,151.3133,151.8963,2,1,0.5712,,,,,,,3,M,,2,2,3,23,2,1,,
,,,,,,,,,,1,,2024-09-24_15h34.05.625,Motor_Task,2023.2.2,Win32,59.88023952,151.8968,152.7135,2,1,0.8052,,,,,,,1,M,,2,2,4,24,0,1,,
,,,,,,,,,,1,,2024-09-24_15h34.05.625,Motor_Task,2023.2.2,Win32,59.88023952,152.7143,153.3187,4,1,0.6042,,,,,,,9,L,,4,2,5,25,8,1,,
,,,,,,,,,,1,,2024-09-24_15h34.05.625,Motor_Task,2023.2.2,Win32,59.88023952,153.3192,153.8637,1,1,0.5443,,,,,,,5,I,,1,2,6,26,4,1,,
,,,,,,,,,,1,,2024-09-24_15h34.05.625,Motor_Task,2023.2.2,Win32,59.88023952,153.8642,154.414,2,1,0.5408,,,,,,,8,M,,2,2,7,27,7,1,,
,,,,,,,,,,1,,2024-09-24_15h34.05.625,Motor_Task,2023.2.2,Win32,59.88023952,154.4144,155.0475,3,1,0.6212,,,,,,,2,R,,3,2,8,28,1,1,,
,,,,,,,,,,1,,2024-09-24_15h34.05.625,Motor_Task,2023.2.2,Win32,59.88023952,155.0479,155.688,3,1,0.6397,,,,,,,7,R,,3,2,9,29,6,1,,
,,,,,,,,,,1,,2024-09-24_15h34.05.625,Motor_Task,2023.2.2,Win32,59.88023952,155.6885,156.4325,2,1,0.7325,,,,,,,1,M,,2,3,0,30,0,1,,
,,,,,,,,,,1,,2024-09-24_15h34.05.625,Motor_Task,2023.2.2,Win32,59.88023952,156.433,156.9828,1,1,0.5426,,,,,,,5,I,,1,3,1,31,4,1,,
,,,,,,,,,,1,,2024-09-24_15h34.05.625,Motor_Task,2023.2.2,Win32,59.88023952,156.9833,157.5228,1,1,0.5391,,,,,,,10,I,,1,3,2,32,9,1,,
,,,,,,,,,,1,,2024-09-24_15h34.05.625,Motor_Task,2023.2.2,Win32,59.88023952,157.5232,158.1165,3,1,0.5908,,,,,,,4,R,,3,3,3,33,3,1,,
,,,,,,,,,,1,,2024-09-24_15h34.05.625,Motor_Task,2023.2.2,Win32,59.88023952,158.1168,158.7006,1,1,0.5738,,,,,,,6,I,,1,3,4,34,5,1,,
,,,,,,,,,,1,,2024-09-24_15h34.05.625,Motor_Task,2023.2.2,Win32,59.88023952,158.701,159.2511,2,1,0.5419,,,,,,,8,M,,2,3,5,35,7,1,,
,,,,,,,,,,1,,2024-09-24_15h34.05.625,Motor_Task,2023.2.2,Win32,59.88023952,159.2518,160.018,3,1,0.7647,,,,,,,2,R,,3,3,6,36,1,1,,
,,,,,,,,,,1,,2024-09-24_15h34.05.625,Motor_Task,2023.2.2,Win32,59.88023952,160.0182,160.836,4,1,0.8145,,,,,,,9,L,,4,3,7,37,8,1,,
,,,,,,,,,,1,,2024-09-24_15h34.05.625,Motor_Task,2023.2.2,Win32,59.88023952,160.8367,161.5522,3,1,0.7036,,,,,,,7,R,,3,3,8,38,6,1,,
,,,,,,,,,,1,,2024-09-24_15h34.05.625,Motor_Task,2023.2.2,Win32,59.88023952,161.5525,162.1203,2,1,0.5555,,,,,,,3,M,,2,3,9,39,2,1,,
,,,,,,,,,,1,,2024-09-24_15h34.05.625,Motor_Task,2023.2.2,Win32,59.88023952,162.1207,162.6866,1,1,0.5564,,,,,,,5,I,,1,4,0,40,4,1,,
,,,,,,,,,,1,,2024-09-24_15h34.05.625,Motor_Task,2023.2.2,Win32,59.88023952,162.6872,163.437,2,1,0.7396,,,,,,,8,M,,2,4,1,41,7,1,,
,,,,,,,,,,1,,2024-09-24_15h34.05.625,Motor_Task,2023.2.2,Win32,59.88023952,163.4375,164.0546,1,1,0.6095,,,,,,,6,I,,1,4,2,42,5,1,,
,,,,,,,,,,1,,2024-09-24_15h34.05.625,Motor_Task,2023.2.2,Win32,59.88023952,164.055,164.6763,2,1,0.621,,,,,,,3,M,,2,4,3,43,2,1,,
,,,,,,,,,,1,,2024-09-24_15h34.05.625,Motor_Task,2023.2.2,Win32,59.88023952,164.6764,165.3722,3,1,0.6875,,,,,,,4,R,,3,4,4,44,3,1,,
,,,,,,,,,,1,,2024-09-24_15h34.05.625,Motor_Task,2023.2.2,Win32,59.88023952,165.3728,166.0054,2,1,0.6259,,,,,,,1,M,,2,4,5,45,0,1,,
,,,,,,,,,,1,,2024-09-24_15h34.05.625,Motor_Task,2023.2.2,Win32,59.88023952,166.0061,166.59,3,1,0.583,,,,,,,7,R,,3,4,6,46,6,1,,
,,,,,,,,,,1,,2024-09-24_15h34.05.625,Motor_Task,2023.2.2,Win32,59.88023952,166.5902,167.34,4,1,0.7385,,,,,,,9,L,,4,4,7,47,8,1,,
,,,,,,,,,,1,,2024-09-24_15h34.05.625,Motor_Task,2023.2.2,Win32,59.88023952,167.3405,167.9902,3,1,0.6463,,,,,,,2,R,,3,4,8,48,1,1,,
,,,,,,,,,,1,,2024-09-24_15h34.05.625,Motor_Task,2023.2.2,Win32,59.88023952,167.9905,168.6236,1,1,0.6224,,,,,,,10,I,,1,4,9,49,9,1,,
,,,,,,,,,,1,,2024-09-24_15h34.05.625,Motor_Task,2023.2.2,Win32,59.88023952,,,,,,,,,,,,,,,,,,,,,168.624,172.6269