Trigger.started,Trigger.stopped,key_resp_4.keys,mouse.x,mouse.y,mouse.leftButton,mouse.midButton,mouse.rightButton,Session,Subject,date,expName,psychopyVersion,OS,frameRate,complex_block.started,complex_block.stopped,key_resp.keys,key_resp.corr,key_resp.rt,key_resp.duration,complex_block_loop.thisRepN,complex_block_loop.thisTrialN,complex_block_loop.thisN,complex_block_loop.thisIndex,complex_block_loop.ran,trial,finger,markerPos,correctResp,new_block_loop.thisRepN,new_block_loop.thisTrialN,new_block_loop.thisN,new_block_loop.thisIndex,new_block_loop.ran,endBuffer.started,endBuffer.stopped
0.0003,1.0383,,-0.037951389,-0.088016493,1,0,0,1,,2024-09-24_15h35.28.396,Motor_Task,2023.2.2,MacIntel,58.82352941,,,,,,,,,,,,,,,,,,,,,,
,,,,,,,,1,,2024-09-24_15h35.28.396,Motor_Task,2023.2.2,MacIntel,58.82352941,1.0571,2.0062,4,0,0.9473,,0,0,0,0,1,1,M,,2,,,,,,,
,,,,,,,,1,,2024-09-24_15h35.28.396,Motor_Task,2023.2.2,MacIntel,58.82352941,2.0069,4.1048,4,0,2.0839,,0,1,1,1,1,2,R,,3,,,,,,,
,,,,,,,,1,,2024-09-24_15h35.28.396,Motor_Task,2023.2.2,MacIntel,58.82352941,4.1052,4.8036,3,0,0.6869,,0,2,2,2,1,3,M,,2,,,,,,,
,,,,,,,,1,,2024-09-24_15h35.28.396,Motor_Task,2023.2.2,MacIntel,58.82352941,4.8043,5.5551,4,0,0.7501,,0,3,3,3,1,4,R,,3,,,,,,,
,,,,,,,,1,,2024-09-24_15h35.28.396,Motor_Task,2023.2.2,MacIntel,58.82352941,5.5556,7.7212,2,0,2.1533,,0,4,4,4,1,5,I,,1,,,,,,,
,,,,,,,,1,,2024-09-24_15h35.28.396,Motor_Task,2023.2.2,MacIntel,58.82352941,7.7219,9.2881,2,0,1.558,,0,5,5,5,1,6,I,,1,,,,,,,
,,,,,,,,1,,2024-09-24_15h35.28.396,Motor_Task,2023.2.2,MacIntel,58.82352941,9.2887,13.138,4,0,3.8365,,0,6,6,6,1,7,R,,3,,,,,,,
,,,,,,,,1,,2024-09-24_15h35.28.396,Motor_Task,2023.2.2,MacIntel,58.82352941,13.1386,13.4212,3,0,0.2697,,0,7,7,7,1,8,M,,2,,,,,,,
,,,,,,,,1,,2024-09-24_15h35.28.396,Motor_Task,2023.2.2,MacIntel,58.82352941,13.4218,14.2548,4,1,0.8199,,0,8,8,8,1,9,L,,4,,,,,,,
,,,,,,,,1,,2024-09-24_15h35.28.396,Motor_Task,2023.2.2,MacIntel,58.82352941,14.2554,15.0881,1,1,0.8185,,0,9,9,9,1,10,I,,1,,,,,,,
,,,,,,,,1,,2024-09-24_15h35.28.396,Motor_Task,2023.2.2,MacIntel,58.82352941,15.0888,15.6038,3,0,0.5062,,1,0,10,0,1,1,M,,2,,,,,,,
,,,,,,,,1,,2024-09-24_15h35.28.396,Motor_Task,2023.2.2,MacIntel,58.82352941,15.6044,16.4547,3,1,0.8382,,1,1,11,1,1,2,R,,3,,,,,,,
,,,,,,,,1,,2024-09-24_15h35.28.396,Motor_Task,2023.2.2,MacIntel,58.82352941,16.4553,17.2547,2,1,0.7864,,1,2,12,2,1,3,M,,2,,,,,,,
,,,,,,,,1,,2024-09-24_15h35.28.396,Motor_Task,2023.2.2,MacIntel,58.82352941,17.2553,17.8544,3,1,0.587,,1,3,13,3,1,4,R,,3,,,,,,,
,,,,,,,,1,,2024-09-24_15h35.28.396,Motor_Task,2023.2.2,MacIntel,58.82352941,17.8548,18.5381,1,1,0.6707,,1,4,14,4,1,5,I,,1,,,,,,,
,,,,,,,,1,,2024-09-24_15h35.28.396,Motor_Task,2023.2.2,MacIntel,58.82352941,18.5387,19.0546,1,1,0.5151,,1,5,15,5,1,6,I,,1,,,,,,,
,,,,,,,,1,,2024-09-24_15h35.28.396,Motor_Task,2023.2.2,MacIntel,58.82352941,19.0551,19.671,3,1,0.6145,,1,6,16,6,1,7,R,,3,,,,,,,
,,,,,,,,1,,2024-09-24_15h35.28.396,Motor_Task,2023.2.2,MacIntel,58.82352941,19.6714,20.2045,2,1,0.5252,,1,7,17,7,1,8,M,,2,,,,,,,
,,,,,,,,1,,2024-09-24_15h35.28.396,Motor_Task,2023.2.2,MacIntel,58.82352941,20.2047,20.9382,4,1,0.7204,,1,8,18,8,1,9,L,,4,,,,,,,
,,,,,,,,1,,2024-09-24_15h35.28.396,Motor_Task,2023.2.2,MacIntel,58.82352941,20.939,21.5541,1,1,0.6031,,1,9,19,9,1,10,I,,1,,,,,,,
,,,,,,,,1,,2024-09-24_15h35.28.396,Motor_Task,2023.2.2,MacIntel,58.82352941,21.5546,22.1882,2,1,0.6222,,2,0,20,0,1,1,M,,2,,,,,,,
,,,,,,,,1,,2024-09-24_15h35.28.396,Motor_Task,2023.2.2,MacIntel,58.82352941,22.1887,22.7214,3,1,0.5201,,2,1,21,1,1,2,R,,3,,,,,,,
,,,,,,,,1,,2024-09-24_15h35.28.396,Motor_Task,2023.2.2,MacIntel,58.82352941,22.7221,23.3715,2,1,0.6369,,2,2,22,2,1,3,M,,2,,,,,,,
,,,,,,,,1,,2024-09-24_15h35.28.396,Motor_Task,2023.2.2,MacIntel,58.82352941,23.3722,23.9881,3,1,0.6032,,2,3,23,3,1,4,R,,3,,,,,,,
,,,,,,,,1,,2024-09-24_15h35.28.396,Motor_Task,2023.2.2,MacIntel,58.82352941,23.9886,24.688,1,1,0.6863,,2,4,24,4,1,5,I,,1,,,,,,,
,,,,,,,,1,,2024-09-24_15h35.28.396,Motor_Task,2023.2.2,MacIntel,58.82352941,24.6886,25.1877,1,1,0.4981,,2,5,25,5,1,6,I,,1,,,,,,,
,,,,,,,,1,,2024-09-24_15h35.28.396,Motor_Task,2023.2.2,MacIntel,58.82352941,25.188,25.7711,3,1,0.5826,,2,6,26,6,1,7,R,,3,,,,,,,
,,,,,,,,1,,2024-09-24_15h35.28.396,Motor_Task,2023.2.2,MacIntel,58.82352941,25.7716,26.2705,2,1,0.4872,,2,7,27,7,1,8,M,,2,,,,,,,
,,,,,,,,1,,2024-09-24_15h35.28.396,Motor_Task,2023.2.2,MacIntel,58.82352941,26.2709,26.9042,4,1,0.6201,,2,8,28,8,1,9,L,,4,,,,,,,
,,,,,,,,1,,2024-09-24_15h35.28.396,Motor_Task,2023.2.2,MacIntel,58.82352941,26.9044,27.4378,1,1,0.5252,,2,9,29,9,1,10,I,,1,,,,,,,
,,,,,,,,1,,2024-09-24_15h35.28.396,Motor_Task,2023.2.2,MacIntel,58.82352941,27.4383,28.0881,2,1,0.6369,,3,0,30,0,1,1,M,,2,,,,,,,
,,,,,,,,1,,2024-09-24_15h35.28.396,Motor_Task,2023.2.2,MacIntel,58.82352941,28.0886,28.588,3,1,0.4849,,3,1,31,1,1,2,R,,3,,,,,,,
,,,,,,,,1,,2024-09-24_15h35.28.396,Motor_Task,2023.2.2,MacIntel,58.82352941,28.5884,29.1209,1,0,0.5199,,3,2,32,2,1,3,M,,2,,,,,,,
,,,,,,,,1,,2024-09-24_15h35.28.396,Motor_Task,2023.2.2,MacIntel,58.82352941,29.121,29.9378,3,1,0.816,,3,3,33,3,1,4,R,,3,,,,,,,
,,,,,,,,1,,2024-09-24_15h35.28.396,Motor_Task,2023.2.2,MacIntel,58.82352941,29.9383,31.0712,1,1,1.1315,,3,4,34,4,1,5,I,,1,,,,,,,
,,,,,,,,1,,2024-09-24_15h35.28.396,Motor_Task,2023.2.2,MacIntel,58.82352941,31.0717,31.6047,1,1,0.5324,,3,5,35,5,1,6,I,,1,,,,,,,
,,,,,,,,1,,2024-09-24_15h35.28.396,Motor_Task,2023.2.2,MacIntel,58.82352941,31.6052,32.3212,3,1,0.7151,,3,6,36,6,1,7,R,,3,,,,,,,
,,,,,,,,1,,2024-09-24_15h35.28.396,Motor_Task,2023.2.2,MacIntel,58.82352941,32.3217,32.8547,2,1,0.5198,,3,7,37,7,1,8,M,,2,,,,,,,
,,,,,,,,1,,2024-09-24_15h35.28.396,Motor_Task,2023.2.2,MacIntel,58.82352941,32.8552,33.5213,4,1,0.6581,,3,8,38,8,1,9,L,,4,,,,,,,
,,,,,,,,1,,2024-09-24_15h35.28.396,Motor_Task,2023.2.2,MacIntel,58.82352941,33.5219,34.1212,1,1,0.5864,,3,9,39,9,1,10,I,,1,,,,,,,
,,,,,,,,1,,2024-09-24_15h35.28.396,Motor_Task,2023.2.2,MacIntel,58.82352941,34.1218,34.7713,2,1,0.6357,,4,0,40,0,1,1,M,,2,,,,,,,
,,,,,,,,1,,2024-09-24_15h35.28.396,Motor_Task,2023.2.2,MacIntel,58.82352941,34.772,35.321,3,1,0.5464,,4,1,41,1,1,2,R,,3,,,,,,,
,,,,,,,,1,,2024-09-24_15h35.28.396,Motor_Task,2023.2.2,MacIntel,58.82352941,35.3212,35.8882,2,1,0.5537,,4,2,42,2,1,3,M,,2,,,,,,,
,,,,,,,,1,,2024-09-24_15h35.28.396,Motor_Task,2023.2.2,MacIntel,58.82352941,35.8889,36.5546,3,1,0.6529,,4,3,43,3,1,4,R,,3,,,,,,,
,,,,,,,,1,,2024-09-24_15h35.28.396,Motor_Task,2023.2.2,MacIntel,58.82352941,36.5551,37.188,1,1,0.6202,,4,4,44,4,1,5,I,,1,,,,,,,
,,,,,,,,1,,2024-09-24_15h35.28.396,Motor_Task,2023.2.2,MacIntel,58.82352941,37.1886,37.6715,1,1,0.4726,,4,5,45,5,1,6,I,,1,,,,,,,
,,,,,,,,1,,2024-09-24_15h35.28.396,Motor_Task,2023.2.2,MacIntel,58.82352941,37.672,38.2382,3,1,0.5533,,4,6,46,6,1,7,R,,3,,,,,,,
,,,,,,,,1,,2024-09-24_15h35.28.396,Motor_Task,2023.2.2,MacIntel,58.82352941,38.2388,38.7715,2,1,0.5219,,4,7,47,7,1,8,M,,2,,,,,,,
,,,,,,,,1,,2024-09-24_15h35.28.396,Motor_Task,2023.2.2,MacIntel,58.82352941,38.7721,39.4879,4,1,0.7148,,4,8,48,8,1,9,L,,4,,,,,,,
,,,,,,,,1,,2024-09-24_15h35.28.396,Motor_Task,2023.2.2,MacIntel,58.82352941,39.4885,40.0549,1,1,0.5582,,4,9,49,9,1,10,I,,1,,,,,,,
,,,,,,,,1,,2024-09-24_15h35.28.396,Motor_Task,2023.2.2,MacIntel,58.82352941,40.0554,40.7714,2,1,0.7029,,5,0,50,0,1,1,M,,2,,,,,,,
,,,,,,,,1,,2024-09-24_15h35.28.396,Motor_Task,2023.2.2,MacIntel,58.82352941,40.7721,41.2547,3,1,0.4697,,5,1,51,1,1,2,R,,3,,,,,,,
,,,,,,,,1,,2024-09-24_15h35.28.396,Motor_Task,2023.2.2,MacIntel,58.82352941,41.2554,41.9714,2,1,0.7071,,5,2,52,2,1,3,M,,2,,,,,,,
,,,,,,,,1,,2024-09-24_15h35.28.396,Motor_Task,2023.2.2,MacIntel,58.82352941,41.9719,42.4374,3,1,0.4531,,5,3,53,3,1,4,R,,3,,,,,,,
,,,,,,,,1,,2024-09-24_15h35.28.396,Motor_Task,2023.2.2,MacIntel,58.82352941,42.4378,43.0047,1,1,0.5544,,5,4,54,4,1,5,I,,1,,,,,,,
,,,,,,,,1,,2024-09-24_15h35.28.396,Motor_Task,2023.2.2,MacIntel,58.82352941,43.0053,43.5549,1,1,0.5364,,5,5,55,5,1,6,I,,1,,,,,,,
,,,,,,,,1,,2024-09-24_15h35.28.396,Motor_Task,2023.2.2,MacIntel,58.82352941,43.5556,44.121,3,1,0.5534,,5,6,56,6,1,7,R,,3,,,,,,,
,,,,,,,,1,,2024-09-24_15h35.28.396,Motor_Task,2023.2.2,MacIntel,58.82352941,44.1214,44.5882,2,1,0.4551,,5,7,57,7,1,8,M,,2,,,,,,,
,,,,,,,,1,,2024-09-24_15h35.28.396,Motor_Task,2023.2.2,MacIntel,58.82352941,44.5887,45.1381,4,1,0.5414,,5,8,58,8,1,9,L,,4,,,,,,,
,,,,,,,,1,,2024-09-24_15h35.28.396,Motor_Task,2023.2.2,MacIntel,58.82352941,45.1385,45.6545,1,1,0.5149,,5,9,59,9,1,10,I,,1,,,,,,,
,,,,,,,,1,,2024-09-24_15h35.28.396,Motor_Task,2023.2.2,MacIntel,58.82352941,45.6551,46.2882,2,1,0.6237,,6,0,60,0,1,1,M,,2,,,,,,,
,,,,,,,,1,,2024-09-24_15h35.28.396,Motor_Task,2023.2.2,MacIntel,58.82352941,46.2887,46.7212,3,1,0.4316,,6,1,61,1,1,2,R,,3,,,,,,,
,,,,,,,,1,,2024-09-24_15h35.28.396,Motor_Task,2023.2.2,MacIntel,58.82352941,46.7217,47.3881,2,1,0.6532,,6,2,62,2,1,3,M,,2,,,,,,,
,,,,,,,,1,,2024-09-24_15h35.28.396,Motor_Task,2023.2.2,MacIntel,58.82352941,47.3888,47.8702,3,1,0.4699,,6,3,63,3,1,4,R,,3,,,,,,,
,,,,,,,,1,,2024-09-24_15h35.28.396,Motor_Task,2023.2.2,MacIntel,58.82352941,47.8707,48.4045,1,1,0.5212,,6,4,64,4,1,5,I,,1,,,,,,,
,,,,,,,,1,,2024-09-24_15h35.28.396,Motor_Task,2023.2.2,MacIntel,58.82352941,48.4048,48.9374,1,1,0.5242,,6,5,65,5,1,6,I,,1,,,,,,,
,,,,,,,,1,,2024-09-24_15h35.28.396,Motor_Task,2023.2.2,MacIntel,58.82352941,48.9379,49.5044,4,0,0.5647,,6,6,66,6,1,7,R,,3,,,,,,,
,,,,,,,,1,,2024-09-24_15h35.28.396,Motor_Task,2023.2.2,MacIntel,58.82352941,49.5048,50.1878,3,0,0.6712,,6,7,67,7,1,8,M,,2,,,,,,,
,,,,,,,,1,,2024-09-24_15h35.28.396,Motor_Task,2023.2.2,MacIntel,58.82352941,50.1882,50.8703,4,1,0.6701,,6,8,68,8,1,9,L,,4,,,,,,,
,,,,,,,,1,,2024-09-24_15h35.28.396,Motor_Task,2023.2.2,MacIntel,58.82352941,50.8708,51.4711,1,1,0.5877,,6,9,69,9,1,10,I,,1,,,,,,,
,,,,,,,,1,,2024-09-24_15h35.28.396,Motor_Task,2023.2.2,MacIntel,58.82352941,51.4717,51.9881,2,1,0.5018,,7,0,70,0,1,1,M,,2,,,,,,,
,,,,,,,,1,,2024-09-24_15h35.28.396,Motor_Task,2023.2.2,MacIntel,58.82352941,51.9886,52.5215,3,1,0.5206,,7,1,71,1,1,2,R,,3,,,,,,,
,,,,,,,,1,,2024-09-24_15h35.28.396,Motor_Task,2023.2.2,MacIntel,58.82352941,52.5221,53.0369,2,1,0.5016,,7,2,72,2,1,3,M,,2,,,,,,,
,,,,,,,,1,,2024-09-24_15h35.28.396,Motor_Task,2023.2.2,MacIntel,58.82352941,53.0373,53.5379,3,1,0.4998,,7,3,73,3,1,4,R,,3,,,,,,,
,,,,,,,,1,,2024-09-24_15h35.28.396,Motor_Task,2023.2.2,MacIntel,58.82352941,53.5384,54.2547,1,1,0.7029,,7,4,74,4,1,5,I,,1,,,,,,,
,,,,,,,,1,,2024-09-24_15h35.28.396,Motor_Task,2023.2.2,MacIntel,58.82352941,54.2552,54.8715,1,1,0.6022,,7,5,75,5,1,6,I,,1,,,,,,,
,,,,,,,,1,,2024-09-24_15h35.28.396,Motor_Task,2023.2.2,MacIntel,58.82352941,54.8721,55.4546,3,1,0.5715,,7,6,76,6,1,7,R,,3,,,,,,,
,,,,,,,,1,,2024-09-24_15h35.28.396,Motor_Task,2023.2.2,MacIntel,58.82352941,55.4552,56.2713,2,1,0.8044,,7,7,77,7,1,8,M,,2,,,,,,,
,,,,,,,,1,,2024-09-24_15h35.28.396,Motor_Task,2023.2.2,MacIntel,58.82352941,56.2719,57.0715,4,1,0.7854,,7,8,78,8,1,9,L,,4,,,,,,,
,,,,,,,,1,,2024-09-24_15h35.28.396,Motor_Task,2023.2.2,MacIntel,58.82352941,57.0722,57.6704,1,1,0.5878,,7,9,79,9,1,10,I,,1,,,,,,,
,,,,,,,,1,,2024-09-24_15h35.28.396,Motor_Task,2023.2.2,MacIntel,58.82352941,57.6708,58.388,2,1,0.7044,,8,0,80,0,1,1,M,,2,,,,,,,
,,,,,,,,1,,2024-09-24_15h35.28.396,Motor_Task,2023.2.2,MacIntel,58.82352941,58.3887,58.8867,3,1,0.4852,,8,1,81,1,1,2,R,,3,,,,,,,
,,,,,,,,1,,2024-09-24_15h35.28.396,Motor_Task,2023.2.2,MacIntel,58.82352941,58.887,59.5044,2,1,0.6076,,8,2,82,2,1,3,M,,2,,,,,,,
,,,,,,,,1,,2024-09-24_15h35.28.396,Motor_Task,2023.2.2,MacIntel,58.82352941,59.5047,60.0544,3,1,0.5359,,8,3,83,3,1,4,R,,3,,,,,,,
,,,,,,,,1,,2024-09-24_15h35.28.396,Motor_Task,2023.2.2,MacIntel,58.82352941,60.0551,60.6864,1,1,0.6282,,8,4,84,4,1,5,I,,1,,,,,,,
,,,,,,,,1,,2024-09-24_15h35.28.396,Motor_Task,2023.2.2,MacIntel,58.82352941,60.6865,61.1864,1,1,0.4876,,8,5,85,5,1,6,I,,1,,,,,,,
,,,,,,,,1,,2024-09-24_15h35.28.396,Motor_Task,2023.2.2,MacIntel,58.82352941,61.1866,61.7867,3,1,0.587,,8,6,86,6,1,7,R,,3,,,,,,,
,,,,,,,,1,,2024-09-24_15h35.28.396,Motor_Task,2023.2.2,MacIntel,58.82352941,61.7871,62.2545,2,1,0.4545,,8,7,87,7,1,8,M,,2,,,,,,,
,,,,,,,,1,,2024-09-24_15h35.28.396,Motor_Task,2023.2.2,MacIntel,58.82352941,62.255,62.9879,4,1,0.7197,,8,8,88,8,1,9,L,,4,,,,,,,
,,,,,,,,1,,2024-09-24_15h35.28.396,Motor_Task,2023.2.2,MacIntel,58.82352941,62.9884,63.4879,1,1,0.4917,,8,9,89,9,1,10,I,,1,,,,,,,
,,,,,,,,1,,2024-09-24_15h35.28.396,Motor_Task,2023.2.2,MacIntel,58.82352941,63.4884,64.0544,2,1,0.5528,,9,0,90,0,1,1,M,,2,,,,,,,
,,,,,,,,1,,2024-09-24_15h35.28.396,Motor_Task,2023.2.2,MacIntel,58.82352941,64.0548,64.5379,3,1,0.4745,,9,1,91,1,1,2,R,,3,,,,,,,
,,,,,,,,1,,2024-09-24_15h35.28.396,Motor_Task,2023.2.2,MacIntel,58.82352941,64.5383,65.0208,2,1,0.4816,,9,2,92,2,1,3,M,,2,,,,,,,
,,,,,,,,1,,2024-09-24_15h35.28.396,Motor_Task,2023.2.2,MacIntel,58.82352941,65.0213,65.504,3,1,0.471,,9,3,93,3,1,4,R,,3,,,,,,,
,,,,,,,,1,,2024-09-24_15h35.28.396,Motor_Task,2023.2.2,MacIntel,58.82352941,65.5044,66.0544,1,1,0.5485,,9,4,94,4,1,5,I,,1,,,,,,,
,,,,,,,,1,,2024-09-24_15h35.28.396,Motor_Task,2023.2.2,MacIntel,58.82352941,66.055,66.5713,1,1,0.5077,,9,5,95,5,1,6,I,,1,,,,,,,
,,,,,,,,1,,2024-09-24_15h35.28.396,Motor_Task,2023.2.2,MacIntel,58.82352941,66.5718,67.2536,3,1,0.6714,,9,6,96,6,1,7,R,,3,,,,,,,
,,,,,,,,1,,2024-09-24_15h35.28.396,Motor_Task,2023.2.2,MacIntel,58.82352941,67.2542,67.7879,2,1,0.5209,,9,7,97,7,1,8,M,,2,,,,,,,
,,,,,,,,1,,2024-09-24_15h35.28.396,Motor_Task,2023.2.2,MacIntel,58.82352941,67.7885,68.4215,4,1,0.6195,,9,8,98,8,1,9,L,,4,,,,,,,
,,,,,,,,1,,2024-09-24_15h35.28.396,Motor_Task,2023.2.2,MacIntel,58.82352941,68.4221,68.9036,1,1,0.4697,,9,9,99,9,1,10,I,,1,,,,,,,
,,,,,,,,1,,2024-09-24_15h35.28.396,Motor_Task,2023.2.2,MacIntel,58.82352941,68.904,69.4045,2,1,0.4995,,10,0,100,0,1,1,M,,2,,,,,,,
,,,,,,,,1,,2024-09-24_15h35.28.396,Motor_Task,2023.2.2,MacIntel,58.82352941,69.4051,69.8713,3,1,0.4531,,10,1,101,1,1,2,R,,3,,,,,,,
,,,,,,,,1,,2024-09-24_15h35.28.396,Motor_Task,2023.2.2,MacIntel,58.82352941,69.8719,70.5213,2,1,0.6367,,10,2,102,2,1,3,M,,2,,,,,,,
,,,,,,,,1,,2024-09-24_15h35.28.396,Motor_Task,2023.2.2,MacIntel,58.82352941,70.522,71.1379,3,1,0.6033,,10,3,103,3,1,4,R,,3,,,,,,,
,,,,,,,,1,,2024-09-24_15h35.28.396,Motor_Task,2023.2.2,MacIntel,58.82352941,71.1385,71.7712,1,1,0.6209,,10,4,104,4,1,5,I,,1,,,,,,,
,,,,,,,,1,,2024-09-24_15h35.28.396,Motor_Task,2023.2.2,MacIntel,58.82352941,71.7718,72.2869,1,1,0.5039,,10,5,105,5,1,6,I,,1,,,,,,,
,,,,,,,,1,,2024-09-24_15h35.28.396,Motor_Task,2023.2.2,MacIntel,58.82352941,72.2874,72.9547,3,1,0.6552,,10,6,106,6,1,7,R,,3,,,,,,,
,,,,,,,,1,,2024-09-24_15h35.28.396,Motor_Task,2023.2.2,MacIntel,58.82352941,72.9554,73.4547,2,1,0.4871,,10,7,107,7,1,8,M,,2,,,,,,,
,,,,,,,,1,,2024-09-24_15h35.28.396,Motor_Task,2023.2.2,MacIntel,58.82352941,73.4553,74.2214,3,0,0.7655,,10,8,108,8,1,9,L,,4,,,,,,,
,,,,,,,,1,,2024-09-24_15h35.28.396,Motor_Task,2023.2.2,MacIntel,58.82352941,74.2219,74.7882,1,1,0.5657,,10,9,109,9,1,10,I,,1,,,,,,,
,,,,,,,,1,,2024-09-24_15h35.28.396,Motor_Task,2023.2.2,MacIntel,58.82352941,74.7886,75.3548,2,1,0.552,,11,0,110,0,1,1,M,,2,,,,,,,
,,,,,,,,1,,2024-09-24_15h35.28.396,Motor_Task,2023.2.2,MacIntel,58.82352941,75.3553,75.8546,3,1,0.4873,,11,1,111,1,1,2,R,,3,,,,,,,
,,,,,,,,1,,2024-09-24_15h35.28.396,Motor_Task,2023.2.2,MacIntel,58.82352941,75.8552,76.4702,2,1,0.6025,,11,2,112,2,1,3,M,,2,,,,,,,
,,,,,,,,1,,2024-09-24_15h35.28.396,Motor_Task,2023.2.2,MacIntel,58.82352941,76.4706,76.9047,3,1,0.4227,,11,3,113,3,1,4,R,,3,,,,,,,
,,,,,,,,1,,2024-09-24_15h35.28.396,Motor_Task,2023.2.2,MacIntel,58.82352941,76.9052,77.5542,1,1,0.635,,11,4,114,4,1,5,I,,1,,,,,,,
,,,,,,,,1,,2024-09-24_15h35.28.396,Motor_Task,2023.2.2,MacIntel,58.82352941,77.5548,77.9868,1,1,0.4306,,11,5,115,5,1,6,I,,1,,,,,,,
,,,,,,,,1,,2024-09-24_15h35.28.396,Motor_Task,2023.2.2,MacIntel,58.82352941,77.9871,78.6381,3,1,0.642,,11,6,116,6,1,7,R,,3,,,,,,,
,,,,,,,,1,,2024-09-24_15h35.28.396,Motor_Task,2023.2.2,MacIntel,58.82352941,78.6387,79.0702,2,1,0.42,,11,7,117,7,1,8,M,,2,,,,,,,
,,,,,,,,1,,2024-09-24_15h35.28.396,Motor_Task,2023.2.2,MacIntel,58.82352941,79.0706,79.7045,3,0,0.6333,,11,8,118,8,1,9,L,,4,,,,,,,
,,,,,,,,1,,2024-09-24_15h35.28.396,Motor_Task,2023.2.2,MacIntel,58.82352941,79.7048,80.32,1,1,0.6133,,11,9,119,9,1,10,I,,1,,,,,,,
,,,,,,,,1,,2024-09-24_15h35.28.396,Motor_Task,2023.2.2,MacIntel,58.82352941,80.3203,80.8373,2,1,0.5056,,12,0,120,0,1,1,M,,2,,,,,,,
,,,,,,,,1,,2024-09-24_15h35.28.396,Motor_Task,2023.2.2,MacIntel,58.82352941,80.8377,81.3535,3,1,0.5039,,12,1,121,1,1,2,R,,3,,,,,,,
,,,,,,,,1,,2024-09-24_15h35.28.396,Motor_Task,2023.2.2,MacIntel,58.82352941,81.3538,81.8214,3,0,0.4554,,12,2,122,2,1,3,M,,2,,,,,,,
,,,,,,,,1,,2024-09-24_15h35.28.396,Motor_Task,2023.2.2,MacIntel,58.82352941,81.8219,82.488,3,1,0.6542,,12,3,123,3,1,4,R,,3,,,,,,,
,,,,,,,,1,,2024-09-24_15h35.28.396,Motor_Task,2023.2.2,MacIntel,58.82352941,82.4886,83.1379,1,1,0.6366,,12,4,124,4,1,5,I,,1,,,,,,,
,,,,,,,,1,,2024-09-24_15h35.28.396,Motor_Task,2023.2.2,MacIntel,58.82352941,83.1385,83.6713,1,1,0.52,,12,5,125,5,1,6,I,,1,,,,,,,
,,,,,,,,1,,2024-09-24_15h35.28.396,Motor_Task,2023.2.2,MacIntel,58.82352941,83.6719,84.2379,3,1,0.5646,,12,6,126,6,1,7,R,,3,,,,,,,
,,,,,,,,1,,2024-09-24_15h35.28.396,Motor_Task,2023.2.2,MacIntel,58.82352941,84.2383,84.7379,2,1,0.487,,12,7,127,7,1,8,M,,2,,,,,,,
,,,,,,,,1,,2024-09-24_15h35.28.396,Motor_Task,2023.2.2,MacIntel,58.82352941,84.7385,85.2379,4,1,0.4867,,12,8,128,8,1,9,L,,4,,,,,,,
,,,,,,,,1,,2024-09-24_15h35.28.396,Motor_Task,2023.2.2,MacIntel,58.82352941,85.2384,85.7201,1,1,0.4694,,12,9,129,9,1,10,I,,1,,,,,,,
,,,,,,,,1,,2024-09-24_15h35.28.396,Motor_Task,2023.2.2,MacIntel,58.82352941,85.7206,86.1879,2,1,0.4563,,13,0,130,0,1,1,M,,2,,,,,,,
,,,,,,,,1,,2024-09-24_15h35.28.396,Motor_Task,2023.2.2,MacIntel,58.82352941,86.1884,86.6546,3,1,0.452,,13,1,131,1,1,2,R,,3,,,,,,,
,,,,,,,,1,,2024-09-24_15h35.28.396,Motor_Task,2023.2.2,MacIntel,58.82352941,86.6553,87.3044,2,1,0.6368,,13,2,132,2,1,3,M,,2,,,,,,,
,,,,,,,,1,,2024-09-24_15h35.28.396,Motor_Task,2023.2.2,MacIntel,58.82352941,87.3048,87.7702,3,1,0.4529,,13,3,133,3,1,4,R,,3,,,,,,,
,,,,,,,,1,,2024-09-24_15h35.28.396,Motor_Task,2023.2.2,MacIntel,58.82352941,87.7706,88.3379,1,1,0.5548,,13,4,134,4,1,5,I,,1,,,,,,,
,,,,,,,,1,,2024-09-24_15h35.28.396,Motor_Task,2023.2.2,MacIntel,58.82352941,88.3384,88.8868,1,1,0.5387,,13,5,135,5,1,6,I,,1,,,,,,,
,,,,,,,,1,,2024-09-24_15h35.28.396,Motor_Task,2023.2.2,MacIntel,58.82352941,88.8873,89.4545,3,1,0.5532,,13,6,136,6,1,7,R,,3,,,,,,,
,,,,,,,,1,,2024-09-24_15h35.28.396,Motor_Task,2023.2.2,MacIntel,58.82352941,89.4551,89.8712,2,1,0.4041,,13,7,137,7,1,8,M,,2,,,,,,,
,,,,,,,,1,,2024-09-24_15h35.28.396,Motor_Task,2023.2.2,MacIntel,58.82352941,89.8718,90.4538,4,1,0.5695,,13,8,138,8,1,9,L,,4,,,,,,,
,,,,,,,,1,,2024-09-24_15h35.28.396,Motor_Task,2023.2.2,MacIntel,58.82352941,90.4541,90.8376,1,1,0.3825,,13,9,139,9,1,10,I,,1,,,,,,,
,,,,,,,,1,,2024-09-24_15h35.28.396,Motor_Task,2023.2.2,MacIntel,58.82352941,90.8378,91.4042,2,1,0.562,,14,0,140,0,1,1,M,,2,,,,,,,
,,,,,,,,1,,2024-09-24_15h35.28.396,Motor_Task,2023.2.2,MacIntel,58.82352941,91.4045,91.8367,3,1,0.4189,,14,1,141,1,1,2,R,,3,,,,,,,
,,,,,,,,1,,2024-09-24_15h35.28.396,Motor_Task,2023.2.2,MacIntel,58.82352941,91.837,92.3204,2,1,0.4711,,14,2,142,2,1,3,M,,2,,,,,,,
,,,,,,,,1,,2024-09-24_15h35.28.396,Motor_Task,2023.2.2,MacIntel,58.82352941,92.3206,92.904,2,0,0.5726,,14,3,143,3,1,4,R,,3,,,,,,,
,,,,,,,,1,,2024-09-24_15h35.28.396,Motor_Task,2023.2.2,MacIntel,58.82352941,92.9041,93.054,3,0,0.1469,,14,4,144,4,1,5,I,,1,,,,,,,
,,,,,,,,1,,2024-09-24_15h35.28.396,Motor_Task,2023.2.2,MacIntel,58.82352941,93.0541,93.5377,1,1,0.4824,,14,5,145,5,1,6,I,,1,,,,,,,
,,,,,,,,1,,2024-09-24_15h35.28.396,Motor_Task,2023.2.2,MacIntel,58.82352941,93.5382,94.1033,3,1,0.5547,,14,6,146,6,1,7,R,,3,,,,,,,
,,,,,,,,1,,2024-09-24_15h35.28.396,Motor_Task,2023.2.2,MacIntel,58.82352941,94.1036,94.5373,2,1,0.4284,,14,7,147,7,1,8,M,,2,,,,,,,
,,,,,,,,1,,2024-09-24_15h35.28.396,Motor_Task,2023.2.2,MacIntel,58.82352941,94.5374,95.3212,4,1,0.7698,,14,8,148,8,1,9,L,,4,,,,,,,
,,,,,,,,1,,2024-09-24_15h35.28.396,Motor_Task,2023.2.2,MacIntel,58.82352941,95.3216,95.7368,1,1,0.4031,,14,9,149,9,1,10,I,,1,,,,,,,
,,,,,,,,1,,2024-09-24_15h35.28.396,Motor_Task,2023.2.2,MacIntel,58.82352941,95.7372,96.2213,2,1,0.4706,,15,0,150,0,1,1,M,,2,,,,,,,
,,,,,,,,1,,2024-09-24_15h35.28.396,Motor_Task,2023.2.2,MacIntel,58.82352941,96.2216,96.6713,3,1,0.4396,,15,1,151,1,1,2,R,,3,,,,,,,
,,,,,,,,1,,2024-09-24_15h35.28.396,Motor_Task,2023.2.2,MacIntel,58.82352941,96.6719,97.1702,2,1,0.4977,,15,2,152,2,1,3,M,,2,,,,,,,
,,,,,,,,1,,2024-09-24_15h35.28.396,Motor_Task,2023.2.2,MacIntel,58.82352941,97.1705,97.688,3,1,0.5048,,15,3,153,3,1,4,R,,3,,,,,,,
,,,,,,,,1,,2024-09-24_15h35.28.396,Motor_Task,2023.2.2,MacIntel,58.82352941,97.6886,98.2213,1,1,0.52,,15,4,154,4,1,5,I,,1,,,,,,,
,,,,,,,,1,,2024-09-24_15h35.28.396,Motor_Task,2023.2.2,MacIntel,58.82352941,98.2219,98.7701,1,1,0.5366,,15,5,155,5,1,6,I,,1,,,,,,,
,,,,,,,,1,,2024-09-24_15h35.28.396,Motor_Task,2023.2.2,MacIntel,58.82352941,98.7706,99.3205,3,1,0.5378,,15,6,156,6,1,7,R,,3,,,,,,,
,,,,,,,,1,,2024-09-24_15h35.28.396,Motor_Task,2023.2.2,MacIntel,58.82352941,99.3211,99.7878,2,1,0.4541,,15,7,157,7,1,8,M,,2,,,,,,,
,,,,,,,,1,,2024-09-24_15h35.28.396,Motor_Task,2023.2.2,MacIntel,58.82352941,99.7883,100.5045,4,1,0.7039,,15,8,158,8,1,9,L,,4,,,,,,,
,,,,,,,,1,,2024-09-24_15h35.28.396,Motor_Task,2023.2.2,MacIntel,58.82352941,100.5049,100.9537,1,1,0.4374,,15,9,159,9,1,10,I,,1,,,,,,,
,,,,,,,,1,,2024-09-24_15h35.28.396,Motor_Task,2023.2.2,MacIntel,58.82352941,100.9542,101.3878,2,1,0.4193,,16,0,160,0,1,1,M,,2,,,,,,,
,,,,,,,,1,,2024-09-24_15h35.28.396,Motor_Task,2023.2.2,MacIntel,58.82352941,101.3883,101.8547,3,1,0.4546,,16,1,161,1,1,2,R,,3,,,,,,,
,,,,,,,,1,,2024-09-24_15h35.28.396,Motor_Task,2023.2.2,MacIntel,58.82352941,101.8553,102.538,2,1,0.6691,,16,2,162,2,1,3,M,,2,,,,,,,
,,,,,,,,1,,2024-09-24_15h35.28.396,Motor_Task,2023.2.2,MacIntel,58.82352941,102.5384,102.9035,3,1,0.3525,,16,3,163,3,1,4,R,,3,,,,,,,
,,,,,,,,1,,2024-09-24_15h35.28.396,Motor_Task,2023.2.2,MacIntel,58.82352941,102.9039,103.5203,1,1,0.6055,,16,4,164,4,1,5,I,,1,,,,,,,
,,,,,,,,1,,2024-09-24_15h35.28.396,Motor_Task,2023.2.2,MacIntel,58.82352941,103.5208,104.1379,1,1,0.6042,,16,5,165,5,1,6,I,,1,,,,,,,
,,,,,,,,1,,2024-09-24_15h35.28.396,Motor_Task,2023.2.2,MacIntel,58.82352941,104.1385,104.8048,3,1,0.6535,,16,6,166,6,1,7,R,,3,,,,,,,
,,,,,,,,1,,2024-09-24_15h35.28.396,Motor_Task,2023.2.2,MacIntel,58.82352941,104.8053,105.2702,2,1,0.4536,,16,7,167,7,1,8,M,,2,,,,,,,
,,,,,,,,1,,2024-09-24_15h35.28.396,Motor_Task,2023.2.2,MacIntel,58.82352941,105.2708,105.937,4,1,0.6535,,16,8,168,8,1,9,L,,4,,,,,,,
,,,,,,,,1,,2024-09-24_15h35.28.396,Motor_Task,2023.2.2,MacIntel,58.82352941,105.9376,106.3879,1,1,0.4475,,16,9,169,9,1,10,I,,1,,,,,,,
,,,,,,,,1,,2024-09-24_15h35.28.396,Motor_Task,2023.2.2,MacIntel,58.82352941,106.3883,106.8378,2,1,0.4467,,17,0,170,0,1,1,M,,2,,,,,,,
,,,,,,,,1,,2024-09-24_15h35.28.396,Motor_Task,2023.2.2,MacIntel,58.82352941,106.8382,107.3045,3,1,0.4554,,17,1,171,1,1,2,R,,3,,,,,,,
,,,,,,,,1,,2024-09-24_15h35.28.396,Motor_Task,2023.2.2,MacIntel,58.82352941,107.305,107.7547,2,1,0.4368,,17,2,172,2,1,3,M,,2,,,,,,,
,,,,,,,,1,,2024-09-24_15h35.28.396,Motor_Task,2023.2.2,MacIntel,58.82352941,107.7552,108.2203,3,1,0.4551,,17,3,173,3,1,4,R,,3,,,,,,,
,,,,,,,,1,,2024-09-24_15h35.28.396,Motor_Task,2023.2.2,MacIntel,58.82352941,108.2209,108.6546,1,1,0.4218,,17,4,174,4,1,5,I,,1,,,,,,,
,,,,,,,,1,,2024-09-24_15h35.28.396,Motor_Task,2023.2.2,MacIntel,58.82352941,108.6551,109.1714,1,1,0.5064,,17,5,175,5,1,6,I,,1,,,,,,,
,,,,,,,,1,,2024-09-24_15h35.28.396,Motor_Task,2023.2.2,MacIntel,58.82352941,109.172,109.9045,3,1,0.7198,,17,6,176,6,1,7,R,,3,,,,,,,
,,,,,,,,1,,2024-09-24_15h35.28.396,Motor_Task,2023.2.2,MacIntel,58.82352941,109.9052,110.1867,2,1,0.2693,,17,7,177,7,1,8,M,,2,,,,,,,
,,,,,,,,1,,2024-09-24_15h35.28.396,Motor_Task,2023.2.2,MacIntel,58.82352941,110.1871,110.9205,4,1,0.7204,,17,8,178,8,1,9,L,,4,,,,,,,
,,,,,,,,1,,2024-09-24_15h35.28.396,Motor_Task,2023.2.2,MacIntel,58.82352941,110.9209,111.3535,1,1,0.4235,,17,9,179,9,1,10,I,,1,,,,,,,
,,,,,,,,1,,2024-09-24_15h35.28.396,Motor_Task,2023.2.2,MacIntel,58.82352941,111.3539,111.838,2,1,0.4743,,18,0,180,0,1,1,M,,2,,,,,,,
,,,,,,,,1,,2024-09-24_15h35.28.396,Motor_Task,2023.2.2,MacIntel,58.82352941,111.8385,112.2711,3,1,0.42,,18,1,181,1,1,2,R,,3,,,,,,,
,,,,,,,,1,,2024-09-24_15h35.28.396,Motor_Task,2023.2.2,MacIntel,58.82352941,112.2717,112.788,2,1,0.5067,,18,2,182,2,1,3,M,,2,,,,,,,
,,,,,,,,1,,2024-09-24_15h35.28.396,Motor_Task,2023.2.2,MacIntel,58.82352941,112.7884,113.1869,3,1,0.3978,,18,3,183,3,1,4,R,,3,,,,,,,
,,,,,,,,1,,2024-09-24_15h35.28.396,Motor_Task,2023.2.2,MacIntel,58.82352941,113.1873,113.6712,1,1,0.471,,18,4,184,4,1,5,I,,1,,,,,,,
,,,,,,,,1,,2024-09-24_15h35.28.396,Motor_Task,2023.2.2,MacIntel,58.82352941,113.6718,114.2545,1,1,0.5685,,18,5,185,5,1,6,I,,1,,,,,,,
,,,,,,,,1,,2024-09-24_15h35.28.396,Motor_Task,2023.2.2,MacIntel,58.82352941,114.2552,114.8874,3,1,0.6208,,18,6,186,6,1,7,R,,3,,,,,,,
,,,,,,,,1,,2024-09-24_15h35.28.396,Motor_Task,2023.2.2,MacIntel,58.82352941,114.8877,115.2703,2,1,0.3701,,18,7,187,7,1,8,M,,2,,,,,,,
,,,,,,,,1,,2024-09-24_15h35.28.396,Motor_Task,2023.2.2,MacIntel,58.82352941,115.2707,115.6533,3,0,0.3821,,18,8,188,8,1,9,L,,4,,,,,,,
,,,,,,,,1,,2024-09-24_15h35.28.396,Motor_Task,2023.2.2,MacIntel,58.82352941,115.6536,116.32,1,1,0.6653,,18,9,189,9,1,10,I,,1,,,,,,,
,,,,,,,,1,,2024-09-24_15h35.28.396,Motor_Task,2023.2.2,MacIntel,58.82352941,116.3203,116.9712,2,1,0.6375,,19,0,190,0,1,1,M,,2,,,,,,,
,,,,,,,,1,,2024-09-24_15h35.28.396,Motor_Task,2023.2.2,MacIntel,58.82352941,116.9717,117.2703,3,1,0.2911,,19,1,191,1,1,2,R,,3,,,,,,,
,,,,,,,,1,,2024-09-24_15h35.28.396,Motor_Task,2023.2.2,MacIntel,58.82352941,117.2707,117.5366,2,1,0.2541,,19,2,192,2,1,3,M,,2,,,,,,,
,,,,,,,,1,,2024-09-24_15h35.28.396,Motor_Task,2023.2.2,MacIntel,58.82352941,117.537,118.1699,3,1,0.6199,,19,3,193,3,1,4,R,,3,,,,,,,
,,,,,,,,1,,2024-09-24_15h35.28.396,Motor_Task,2023.2.2,MacIntel,58.82352941,118.1702,118.6372,1,1,0.4581,,19,4,194,4,1,5,I,,1,,,,,,,
,,,,,,,,1,,2024-09-24_15h35.28.396,Motor_Task,2023.2.2,MacIntel,58.82352941,118.6377,119.221,1,1,0.5735,,19,5,195,5,1,6,I,,1,,,,,,,
,,,,,,,,1,,2024-09-24_15h35.28.396,Motor_Task,2023.2.2,MacIntel,58.82352941,119.2213,119.8876,3,1,0.6635,,19,6,196,6,1,7,R,,3,,,,,,,
,,,,,,,,1,,2024-09-24_15h35.28.396,Motor_Task,2023.2.2,MacIntel,58.82352941,119.8881,120.2544,2,1,0.3564,,19,7,197,7,1,8,M,,2,,,,,,,
,,,,,,,,1,,2024-09-24_15h35.28.396,Motor_Task,2023.2.2,MacIntel,58.82352941,120.2549,120.5211,3,0,0.2532,,19,8,198,8,1,9,L,,4,,,,,,,
,,,,,,,,1,,2024-09-24_15h35.28.396,Motor_Task,2023.2.2,MacIntel,58.82352941,120.5216,121.2376,1,1,0.7149,,19,9,199,9,1,10,I,,1,,,,,,,
,,,,,,,,1,,2024-09-24_15h35.28.396,Motor_Task,2023.2.2,MacIntel,58.82352941,121.2476,121.9878,4,1,0.7272,,,,,,,9,L,,4,0,0,0,8,1,,
,,,,,,,,1,,2024-09-24_15h35.28.396,Motor_Task,2023.2.2,MacIntel,58.82352941,121.9886,122.4533,1,0,0.458,,,,,,,8,M,,2,0,1,1,7,1,,
,,,,,,,,1,,2024-09-24_15h35.28.396,Motor_Task,2023.2.2,MacIntel,58.82352941,122.4537,123.1878,1,1,0.7208,,,,,,,10,I,,1,0,2,2,9,1,,
,,,,,,,,1,,2024-09-24_15h35.28.396,Motor_Task,2023.2.2,MacIntel,58.82352941,123.1885,123.8199,3,1,0.6182,,,,,,,7,R,,3,0,3,3,6,1,,
,,,,,,,,1,,2024-09-24_15h35.28.396,Motor_Task,2023.2.2,MacIntel,58.82352941,123.8204,124.4706,1,1,0.64,,,,,,,6,I,,1,0,4,4,5,1,,
,,,,,,,,1,,2024-09-24_15h35.28.396,Motor_Task,2023.2.2,MacIntel,58.82352941,124.4707,125.0039,1,1,0.5299,,,,,,,5,I,,1,0,5,5,4,1,,
,,,,,,,,1,,2024-09-24_15h35.28.396,Motor_Task,2023.2.2,MacIntel,58.82352941,125.004,125.5878,3,1,0.5739,,,,,,,2,R,,3,0,6,6,1,1,,
,,,,,,,,1,,2024-09-24_15h35.28.396,Motor_Task,2023.2.2,MacIntel,58.82352941,125.5884,126.02,2,0,0.424,,,,,,,4,R,,3,0,7,7,3,1,,
,,,,,,,,1,,2024-09-24_15h35.28.396,Motor_Task,2023.2.2,MacIntel,58.82352941,126.0206,126.7044,2,1,0.6705,,,,,,,3,M,,2,0,8,8,2,1,,
,,,,,,,,1,,2024-09-24_15h35.28.396,Motor_Task,2023.2.2,MacIntel,58.82352941,126.7048,127.2876,2,1,0.57,,,,,,,1,M,,2,0,9,9,0,1,,
,,,,,,,,1,,2024-09-24_15h35.28.396,Motor_Task,2023.2.2,MacIntel,58.82352941,127.2882,127.7876,2,1,0.4864,,,,,,,1,M,,2,1,0,10,0,1,,
,,,,,,,,1,,2024-09-24_15h35.28.396,Motor_Task,2023.2.2,MacIntel,58.82352941,127.7882,128.3366,3,1,0.5362,,,,,,,2,R,,3,1,1,11,1,1,,
,,,,,,,,1,,2024-09-24_15h35.28.396,Motor_Task,2023.2.2,MacIntel,58.82352941,128.337,128.9701,4,1,0.621,,,,,,,9,L,,4,1,2,12,8,1,,
,,,,,,,,1,,2024-09-24_15h35.28.396,Motor_Task,2023.2.2,MacIntel,58.82352941,128.9706,129.4212,1,0,0.4366,,,,,,,7,R,,3,1,3,13,6,1,,
,,,,,,,,1,,2024-09-24_15h35.28.396,Motor_Task,2023.2.2,MacIntel,58.82352941,129.4218,130.1877,2,1,0.758,,,,,,,3,M,,2,1,4,14,2,1,,
,,,,,,,,1,,2024-09-24_15h35.28.396,Motor_Task,2023.2.2,MacIntel,58.82352941,130.1882,130.721,1,1,0.5184,,,,,,,10,I,,1,1,5,15,9,1,,
,,,,,,,,1,,2024-09-24_15h35.28.396,Motor_Task,2023.2.2,MacIntel,58.82352941,130.7213,131.2534,1,1,0.5177,,,,,,,5,I,,1,1,6,16,4,1,,
,,,,,,,,1,,2024-09-24_15h35.28.396,Motor_Task,2023.2.2,MacIntel,58.82352941,131.2538,131.671,1,1,0.4042,,,,,,,6,I,,1,1,7,17,5,1,,
,,,,,,,,1,,2024-09-24_15h35.28.396,Motor_Task,2023.2.2,MacIntel,58.82352941,131.6716,132.221,3,1,0.5373,,,,,,,4,R,,3,1,8,18,3,1,,
,,,,,,,,1,,2024-09-24_15h35.28.396,Motor_Task,2023.2.2,MacIntel,58.82352941,132.2216,132.6371,2,1,0.415,,,,,,,8,M,,2,1,9,19,7,1,,
,,,,,,,,1,,2024-09-24_15h35.28.396,Motor_Task,2023.2.2,MacIntel,58.82352941,132.6375,133.1876,2,1,0.548,,,,,,,8,M,,2,2,0,20,7,1,,
,,,,,,,,1,,2024-09-24_15h35.28.396,Motor_Task,2023.2.2,MacIntel,58.82352941,133.1881,133.821,1,1,0.631,,,,,,,6,I,,1,2,1,21,5,1,,
,,,,,,,,1,,2024-09-24_15h35.28.396,Motor_Task,2023.2.2,MacIntel,58.82352941,133.8214,134.2877,3,1,0.4515,,,,,,,7,R,,3,2,2,22,6,1,,
,,,,,,,,1,,2024-09-24_15h35.28.396,Motor_Task,2023.2.2,MacIntel,58.82352941,134.2883,134.7376,2,1,0.4361,,,,,,,3,M,,2,2,3,23,2,1,,
,,,,,,,,1,,2024-09-24_15h35.28.396,Motor_Task,2023.2.2,MacIntel,58.82352941,134.7381,135.1711,4,0,0.4255,,,,,,,4,R,,3,2,4,24,3,1,,
,,,,,,,,1,,2024-09-24_15h35.28.396,Motor_Task,2023.2.2,MacIntel,58.82352941,135.1716,135.8712,4,0,0.6856,,,,,,,2,R,,3,2,5,25,1,1,,
,,,,,,,,1,,2024-09-24_15h35.28.396,Motor_Task,2023.2.2,MacIntel,58.82352941,135.8718,136.5209,4,1,0.6463,,,,,,,9,L,,4,2,6,26,8,1,,
,,,,,,,,1,,2024-09-24_15h35.28.396,Motor_Task,2023.2.2,MacIntel,58.82352941,136.5211,137.0365,1,1,0.502,,,,,,,10,I,,1,2,7,27,9,1,,
,,,,,,,,1,,2024-09-24_15h35.28.396,Motor_Task,2023.2.2,MacIntel,58.82352941,137.037,137.471,2,1,0.4225,,,,,,,1,M,,2,2,8,28,0,1,,
,,,,,,,,1,,2024-09-24_15h35.28.396,Motor_Task,2023.2.2,MacIntel,58.82352941,137.4715,137.9867,2,0,0.5037,,,,,,,5,I,,1,2,9,29,4,1,,
,,,,,,,,1,,2024-09-24_15h35.28.396,Motor_Task,2023.2.2,MacIntel,58.82352941,137.9871,138.6867,2,0,0.6874,,,,,,,10,I,,1,3,0,30,9,1,,
,,,,,,,,1,,2024-09-24_15h35.28.396,Motor_Task,2023.2.2,MacIntel,58.82352941,138.6871,139.3545,2,1,0.6526,,,,,,,1,M,,2,3,1,31,0,1,,
,,,,,,,,1,,2024-09-24_15h35.28.396,Motor_Task,2023.2.2,MacIntel,58.82352941,139.355,140.0045,2,1,0.6366,,,,,,,8,M,,2,3,2,32,7,1,,
,,,,,,,,1,,2024-09-24_15h35.28.396,Motor_Task,2023.2.2,MacIntel,58.82352941,140.0051,140.9213,4,1,0.9065,,,,,,,9,L,,4,3,3,33,8,1,,
,,,,,,,,1,,2024-09-24_15h35.28.396,Motor_Task,2023.2.2,MacIntel,58.82352941,140.9217,141.3867,4,0,0.4523,,,,,,,4,R,,3,3,4,34,3,1,,
,,,,,,,,1,,2024-09-24_15h35.28.396,Motor_Task,2023.2.2,MacIntel,58.82352941,141.3873,141.9367,4,0,0.5419,,,,,,,2,R,,3,3,5,35,1,1,,
,,,,,,,,1,,2024-09-24_15h35.28.396,Motor_Task,2023.2.2,MacIntel,58.82352941,141.9372,142.4209,3,1,0.4712,,,,,,,7,R,,3,3,6,36,6,1,,
,,,,,,,,1,,2024-09-24_15h35.28.396,Motor_Task,2023.2.2,MacIntel,58.82352941,142.4216,142.9713,1,1,0.5408,,,,,,,6,I,,1,3,7,37,5,1,,
,,,,,,,,1,,2024-09-24_15h35.28.396,Motor_Task,2023.2.2,MacIntel,58.82352941,142.972,143.4878,1,1,0.5154,,,,,,,5,I,,1,3,8,38,4,1,,
,,,,,,,,1,,2024-09-24_15h35.28.396,Motor_Task,2023.2.2,MacIntel,58.82352941,143.4882,144.0207,2,1,0.5187,,,,,,,3,M,,2,3,9,39,2,1,,
,,,,,,,,1,,2024-09-24_15h35.28.396,Motor_Task,2023.2.2,MacIntel,58.82352941,144.0212,144.5533,2,1,0.5193,,,,,,,3,M,,2,4,0,40,2,1,,
,,,,,,,,1,,2024-09-24_15h35.28.396,Motor_Task,2023.2.2,MacIntel,58.82352941,144.5537,145.203,1,1,0.6477,,,,,,,6,I,,1,4,1,41,5,1,,
,,,,,,,,1,,2024-09-24_15h35.28.396,Motor_Task,2023.2.2,MacIntel,58.82352941,145.2032,145.6042,2,0,0.3924,,,,,,,2,R,,3,4,2,42,1,1,,
,,,,,,,,1,,2024-09-24_15h35.28.396,Motor_Task,2023.2.2,MacIntel,58.82352941,145.6046,146.271,1,1,0.6534,,,,,,,10,I,,1,4,3,43,9,1,,
,,,,,,,,1,,2024-09-24_15h35.28.396,Motor_Task,2023.2.2,MacIntel,58.82352941,146.2716,147.1542,1,1,0.8711,,,,,,,5,I,,1,4,4,44,4,1,,
,,,,,,,,1,,2024-09-24_15h35.28.396,Motor_Task,2023.2.2,MacIntel,58.82352941,147.1545,147.9699,2,1,0.8033,,,,,,,8,M,,2,4,5,45,7,1,,
,,,,,,,,1,,2024-09-24_15h35.28.396,Motor_Task,2023.2.2,MacIntel,58.82352941,147.9703,148.7533,4,1,0.7712,,,,,,,9,L,,4,4,6,46,8,1,,
,,,,,,,,1,,2024-09-24_15h35.28.396,Motor_Task,2023.2.2,MacIntel,58.82352941,148.7537,149.3709,3,1,0.6165,,,,,,,7,R,,3,4,7,47,6,1,,
,,,,,,,,1,,2024-09-24_15h35.28.396,Motor_Task,2023.2.2,MacIntel,58.82352941,149.3713,150.0032,3,1,0.6188,,,,,,,4,R,,3,4,8,48,3,1,,
,,,,,,,,1,,2024-09-24_15h35.28.396,Motor_Task,2023.2.2,MacIntel,58.82352941,150.0035,150.7044,2,1,0.6867,,,,,,,1,M,,2,4,9,49,0,1,,
,,,,,,,,1,,2024-09-24_15h35.28.396,Motor_Task,2023.2.2,MacIntel,58.82352941,,,,,,,,,,,,,,,,,,,,,150.7052,154.7047