Trigger.started,Trigger.stopped,key_resp_4.keys,key_resp_4.rt,key_resp_4.duration,mouse.x,mouse.y,mouse.leftButton,mouse.midButton,mouse.rightButton,Session,Subject,date,expName,psychopyVersion,OS,frameRate,complex_block.started,complex_block.stopped,key_resp.keys,key_resp.corr,key_resp.rt,key_resp.duration,complex_block_loop.thisRepN,complex_block_loop.thisTrialN,complex_block_loop.thisN,complex_block_loop.thisIndex,complex_block_loop.ran,trial,finger,markerPos,correctResp,new_block_loop.thisRepN,new_block_loop.thisTrialN,new_block_loop.thisN,new_block_loop.thisIndex,new_block_loop.ran,endBuffer.started,endBuffer.stopped
0,4.76,space,4.736,,-0.019047619,-0.074603175,0,0,0,1,,2024-09-24_15h34.44.686,Motor_Task,2023.2.2,MacIntel,30.3030303,,,,,,,,,,,,,,,,,,,,,,
,,,,,,,,,,1,,2024-09-24_15h34.44.686,Motor_Task,2023.2.2,MacIntel,30.3030303,4.767,5.529,2,1,0.75,,0,0,0,0,1,1,M,,2,,,,,,,
,,,,,,,,,,1,,2024-09-24_15h34.44.686,Motor_Task,2023.2.2,MacIntel,30.3030303,5.53,6.096,3,1,0.538,,0,1,1,1,1,2,R,,3,,,,,,,
,,,,,,,,,,1,,2024-09-24_15h34.44.686,Motor_Task,2023.2.2,MacIntel,30.3030303,6.097,7.028,2,1,0.926,,0,2,2,2,1,3,M,,2,,,,,,,
,,,,,,,,,,1,,2024-09-24_15h34.44.686,Motor_Task,2023.2.2,MacIntel,30.3030303,7.029,7.995,3,1,0.961,,0,3,3,3,1,4,R,,3,,,,,,,
,,,,,,,,,,1,,2024-09-24_15h34.44.686,Motor_Task,2023.2.2,MacIntel,30.3030303,7.995,8.728,1,1,0.714,,0,4,4,4,1,5,I,,1,,,,,,,
,,,,,,,,,,1,,2024-09-24_15h34.44.686,Motor_Task,2023.2.2,MacIntel,30.3030303,8.729,9.294,1,1,0.557,,0,5,5,5,1,6,I,,1,,,,,,,
,,,,,,,,,,1,,2024-09-24_15h34.44.686,Motor_Task,2023.2.2,MacIntel,30.3030303,9.295,9.894,3,1,0.592,,0,6,6,6,1,7,R,,3,,,,,,,
,,,,,,,,,,1,,2024-09-24_15h34.44.686,Motor_Task,2023.2.2,MacIntel,30.3030303,9.894,10.361,2,1,0.463,,0,7,7,7,1,8,M,,2,,,,,,,
,,,,,,,,,,1,,2024-09-24_15h34.44.686,Motor_Task,2023.2.2,MacIntel,30.3030303,10.361,11.027,4,1,0.64,,0,8,8,8,1,9,L,,4,,,,,,,
,,,,,,,,,,1,,2024-09-24_15h34.44.686,Motor_Task,2023.2.2,MacIntel,30.3030303,11.028,11.493,1,1,0.465,,0,9,9,9,1,10,I,,1,,,,,,,
,,,,,,,,,,1,,2024-09-24_15h34.44.686,Motor_Task,2023.2.2,MacIntel,30.3030303,11.494,11.96,2,1,0.45,,1,0,10,0,1,1,M,,2,,,,,,,
,,,,,,,,,,1,,2024-09-24_15h34.44.686,Motor_Task,2023.2.2,MacIntel,30.3030303,11.961,12.394,3,1,0.406,,1,1,11,1,1,2,R,,3,,,,,,,
,,,,,,,,,,1,,2024-09-24_15h34.44.686,Motor_Task,2023.2.2,MacIntel,30.3030303,12.395,12.793,2,1,0.394,,1,2,12,2,1,3,M,,2,,,,,,,
,,,,,,,,,,1,,2024-09-24_15h34.44.686,Motor_Task,2023.2.2,MacIntel,30.3030303,12.793,13.193,3,1,0.38,,1,3,13,3,1,4,R,,3,,,,,,,
,,,,,,,,,,1,,2024-09-24_15h34.44.686,Motor_Task,2023.2.2,MacIntel,30.3030303,13.193,13.426,2,0,0.21,,1,4,14,4,1,5,I,,1,,,,,,,
,,,,,,,,,,1,,2024-09-24_15h34.44.686,Motor_Task,2023.2.2,MacIntel,30.3030303,13.427,13.993,1,1,0.56,,1,5,15,5,1,6,I,,1,,,,,,,
,,,,,,,,,,1,,2024-09-24_15h34.44.686,Motor_Task,2023.2.2,MacIntel,30.3030303,13.994,14.494,3,1,0.497,,1,6,16,6,1,7,R,,3,,,,,,,
,,,,,,,,,,1,,2024-09-24_15h34.44.686,Motor_Task,2023.2.2,MacIntel,30.3030303,14.494,14.926,1,0,0.42,,1,7,17,7,1,8,M,,2,,,,,,,
,,,,,,,,,,1,,2024-09-24_15h34.44.686,Motor_Task,2023.2.2,MacIntel,30.3030303,14.927,15.028,2,0,0.099,,1,8,18,8,1,9,L,,4,,,,,,,
,,,,,,,,,,1,,2024-09-24_15h34.44.686,Motor_Task,2023.2.2,MacIntel,30.3030303,15.028,15.66,1,1,0.623,,1,9,19,9,1,10,I,,1,,,,,,,
,,,,,,,,,,1,,2024-09-24_15h34.44.686,Motor_Task,2023.2.2,MacIntel,30.3030303,15.66,16.09,2,1,0.405,,2,0,20,0,1,1,M,,2,,,,,,,
,,,,,,,,,,1,,2024-09-24_15h34.44.686,Motor_Task,2023.2.2,MacIntel,30.3030303,16.091,16.593,3,1,0.494,,2,1,21,1,1,2,R,,3,,,,,,,
,,,,,,,,,,1,,2024-09-24_15h34.44.686,Motor_Task,2023.2.2,MacIntel,30.3030303,16.594,17.193,2,1,0.585,,2,2,22,2,1,3,M,,2,,,,,,,
,,,,,,,,,,1,,2024-09-24_15h34.44.686,Motor_Task,2023.2.2,MacIntel,30.3030303,17.194,18.093,3,1,0.873,,2,3,23,3,1,4,R,,3,,,,,,,
,,,,,,,,,,1,,2024-09-24_15h34.44.686,Motor_Task,2023.2.2,MacIntel,30.3030303,18.094,18.56,1,1,0.436,,2,4,24,4,1,5,I,,1,,,,,,,
,,,,,,,,,,1,,2024-09-24_15h34.44.686,Motor_Task,2023.2.2,MacIntel,30.3030303,18.56,19.159,1,1,0.573,,2,5,25,5,1,6,I,,1,,,,,,,
,,,,,,,,,,1,,2024-09-24_15h34.44.686,Motor_Task,2023.2.2,MacIntel,30.3030303,19.16,19.791,3,1,0.615,,2,6,26,6,1,7,R,,3,,,,,,,
,,,,,,,,,,1,,2024-09-24_15h34.44.686,Motor_Task,2023.2.2,MacIntel,30.3030303,19.791,20.227,2,1,0.427,,2,7,27,7,1,8,M,,2,,,,,,,
,,,,,,,,,,1,,2024-09-24_15h34.44.686,Motor_Task,2023.2.2,MacIntel,30.3030303,20.227,20.86,4,1,0.628,,2,8,28,8,1,9,L,,4,,,,,,,
,,,,,,,,,,1,,2024-09-24_15h34.44.686,Motor_Task,2023.2.2,MacIntel,30.3030303,20.861,21.427,1,1,0.536,,2,9,29,9,1,10,I,,1,,,,,,,
,,,,,,,,,,1,,2024-09-24_15h34.44.686,Motor_Task,2023.2.2,MacIntel,30.3030303,21.427,21.86,2,1,0.429,,3,0,30,0,1,1,M,,2,,,,,,,
,,,,,,,,,,1,,2024-09-24_15h34.44.686,Motor_Task,2023.2.2,MacIntel,30.3030303,21.861,22.292,3,1,0.413,,3,1,31,1,1,2,R,,3,,,,,,,
,,,,,,,,,,1,,2024-09-24_15h34.44.686,Motor_Task,2023.2.2,MacIntel,30.3030303,22.293,22.726,2,1,0.404,,3,2,32,2,1,3,M,,2,,,,,,,
,,,,,,,,,,1,,2024-09-24_15h34.44.686,Motor_Task,2023.2.2,MacIntel,30.3030303,22.727,23.227,3,1,0.482,,3,3,33,3,1,4,R,,3,,,,,,,
,,,,,,,,,,1,,2024-09-24_15h34.44.686,Motor_Task,2023.2.2,MacIntel,30.3030303,23.227,23.66,1,1,0.43,,3,4,34,4,1,5,I,,1,,,,,,,
,,,,,,,,,,1,,2024-09-24_15h34.44.686,Motor_Task,2023.2.2,MacIntel,30.3030303,23.661,24.227,1,1,0.536,,3,5,35,5,1,6,I,,1,,,,,,,
,,,,,,,,,,1,,2024-09-24_15h34.44.686,Motor_Task,2023.2.2,MacIntel,30.3030303,24.227,24.726,3,1,0.488,,3,6,36,6,1,7,R,,3,,,,,,,
,,,,,,,,,,1,,2024-09-24_15h34.44.686,Motor_Task,2023.2.2,MacIntel,30.3030303,24.727,25.159,2,1,0.402,,3,7,37,7,1,8,M,,2,,,,,,,
,,,,,,,,,,1,,2024-09-24_15h34.44.686,Motor_Task,2023.2.2,MacIntel,30.3030303,25.16,25.76,4,1,0.57,,3,8,38,8,1,9,L,,4,,,,,,,
,,,,,,,,,,1,,2024-09-24_15h34.44.686,Motor_Task,2023.2.2,MacIntel,30.3030303,25.76,26.16,1,1,0.392,,3,9,39,9,1,10,I,,1,,,,,,,
,,,,,,,,,,1,,2024-09-24_15h34.44.686,Motor_Task,2023.2.2,MacIntel,30.3030303,26.16,26.56,2,1,0.383,,4,0,40,0,1,1,M,,2,,,,,,,
,,,,,,,,,,1,,2024-09-24_15h34.44.686,Motor_Task,2023.2.2,MacIntel,30.3030303,26.56,27.026,3,1,0.444,,4,1,41,1,1,2,R,,3,,,,,,,
,,,,,,,,,,1,,2024-09-24_15h34.44.686,Motor_Task,2023.2.2,MacIntel,30.3030303,27.027,27.427,2,1,0.384,,4,2,42,2,1,3,M,,2,,,,,,,
,,,,,,,,,,1,,2024-09-24_15h34.44.686,Motor_Task,2023.2.2,MacIntel,30.3030303,27.427,27.926,3,1,0.473,,4,3,43,3,1,4,R,,3,,,,,,,
,,,,,,,,,,1,,2024-09-24_15h34.44.686,Motor_Task,2023.2.2,MacIntel,30.3030303,27.926,28.459,1,1,0.526,,4,4,44,4,1,5,I,,1,,,,,,,
,,,,,,,,,,1,,2024-09-24_15h34.44.686,Motor_Task,2023.2.2,MacIntel,30.3030303,28.46,28.993,1,1,0.518,,4,5,45,5,1,6,I,,1,,,,,,,
,,,,,,,,,,1,,2024-09-24_15h34.44.686,Motor_Task,2023.2.2,MacIntel,30.3030303,28.993,29.561,3,1,0.562,,4,6,46,6,1,7,R,,3,,,,,,,
,,,,,,,,,,1,,2024-09-24_15h34.44.686,Motor_Task,2023.2.2,MacIntel,30.3030303,29.561,30.026,2,1,0.437,,4,7,47,7,1,8,M,,2,,,,,,,
,,,,,,,,,,1,,2024-09-24_15h34.44.686,Motor_Task,2023.2.2,MacIntel,30.3030303,30.027,30.494,3,0,0.466,,4,8,48,8,1,9,L,,4,,,,,,,
,,,,,,,,,,1,,2024-09-24_15h34.44.686,Motor_Task,2023.2.2,MacIntel,30.3030303,30.494,31.16,1,1,0.652,,4,9,49,9,1,10,I,,1,,,,,,,
,,,,,,,,,,1,,2024-09-24_15h34.44.686,Motor_Task,2023.2.2,MacIntel,30.3030303,31.161,31.56,2,1,0.399,,5,0,50,0,1,1,M,,2,,,,,,,
,,,,,,,,,,1,,2024-09-24_15h34.44.686,Motor_Task,2023.2.2,MacIntel,30.3030303,31.561,32.359,3,1,0.78,,5,1,51,1,1,2,R,,3,,,,,,,
,,,,,,,,,,1,,2024-09-24_15h34.44.686,Motor_Task,2023.2.2,MacIntel,30.3030303,32.36,32.826,1,0,0.463,,5,2,52,2,1,3,M,,2,,,,,,,
,,,,,,,,,,1,,2024-09-24_15h34.44.686,Motor_Task,2023.2.2,MacIntel,30.3030303,32.827,33.56,3,1,0.714,,5,3,53,3,1,4,R,,3,,,,,,,
,,,,,,,,,,1,,2024-09-24_15h34.44.686,Motor_Task,2023.2.2,MacIntel,30.3030303,33.56,34.127,1,1,0.538,,5,4,54,4,1,5,I,,1,,,,,,,
,,,,,,,,,,1,,2024-09-24_15h34.44.686,Motor_Task,2023.2.2,MacIntel,30.3030303,34.127,34.626,1,1,0.485,,5,5,55,5,1,6,I,,1,,,,,,,
,,,,,,,,,,1,,2024-09-24_15h34.44.686,Motor_Task,2023.2.2,MacIntel,30.3030303,34.627,35.193,3,1,0.566,,5,6,56,6,1,7,R,,3,,,,,,,
,,,,,,,,,,1,,2024-09-24_15h34.44.686,Motor_Task,2023.2.2,MacIntel,30.3030303,35.194,35.66,2,1,0.447,,5,7,57,7,1,8,M,,2,,,,,,,
,,,,,,,,,,1,,2024-09-24_15h34.44.686,Motor_Task,2023.2.2,MacIntel,30.3030303,35.66,36.26,4,1,0.574,,5,8,58,8,1,9,L,,4,,,,,,,
,,,,,,,,,,1,,2024-09-24_15h34.44.686,Motor_Task,2023.2.2,MacIntel,30.3030303,36.26,36.76,1,1,0.472,,5,9,59,9,1,10,I,,1,,,,,,,
,,,,,,,,,,1,,2024-09-24_15h34.44.686,Motor_Task,2023.2.2,MacIntel,30.3030303,36.76,37.226,2,1,0.452,,6,0,60,0,1,1,M,,2,,,,,,,
,,,,,,,,,,1,,2024-09-24_15h34.44.686,Motor_Task,2023.2.2,MacIntel,30.3030303,37.227,37.657,3,1,0.421,,6,1,61,1,1,2,R,,3,,,,,,,
,,,,,,,,,,1,,2024-09-24_15h34.44.686,Motor_Task,2023.2.2,MacIntel,30.3030303,37.657,38.093,2,1,0.412,,6,2,62,2,1,3,M,,2,,,,,,,
,,,,,,,,,,1,,2024-09-24_15h34.44.686,Motor_Task,2023.2.2,MacIntel,30.3030303,38.094,38.693,3,1,0.569,,6,3,63,3,1,4,R,,3,,,,,,,
,,,,,,,,,,1,,2024-09-24_15h34.44.686,Motor_Task,2023.2.2,MacIntel,30.3030303,38.694,39.093,2,0,0.391,,6,4,64,4,1,5,I,,1,,,,,,,
,,,,,,,,,,1,,2024-09-24_15h34.44.686,Motor_Task,2023.2.2,MacIntel,30.3030303,39.094,39.859,1,1,0.75,,6,5,65,5,1,6,I,,1,,,,,,,
,,,,,,,,,,1,,2024-09-24_15h34.44.686,Motor_Task,2023.2.2,MacIntel,30.3030303,39.86,40.359,3,1,0.49,,6,6,66,6,1,7,R,,3,,,,,,,
,,,,,,,,,,1,,2024-09-24_15h34.44.686,Motor_Task,2023.2.2,MacIntel,30.3030303,40.36,40.826,2,1,0.447,,6,7,67,7,1,8,M,,2,,,,,,,
,,,,,,,,,,1,,2024-09-24_15h34.44.686,Motor_Task,2023.2.2,MacIntel,30.3030303,40.826,41.393,4,1,0.563,,6,8,68,8,1,9,L,,4,,,,,,,
,,,,,,,,,,1,,2024-09-24_15h34.44.686,Motor_Task,2023.2.2,MacIntel,30.3030303,41.393,41.893,1,1,0.471,,6,9,69,9,1,10,I,,1,,,,,,,
,,,,,,,,,,1,,2024-09-24_15h34.44.686,Motor_Task,2023.2.2,MacIntel,30.3030303,41.894,42.36,2,1,0.439,,7,0,70,0,1,1,M,,2,,,,,,,
,,,,,,,,,,1,,2024-09-24_15h34.44.686,Motor_Task,2023.2.2,MacIntel,30.3030303,42.361,42.893,3,1,0.511,,7,1,71,1,1,2,R,,3,,,,,,,
,,,,,,,,,,1,,2024-09-24_15h34.44.686,Motor_Task,2023.2.2,MacIntel,30.3030303,42.894,43.36,2,1,0.453,,7,2,72,2,1,3,M,,2,,,,,,,
,,,,,,,,,,1,,2024-09-24_15h34.44.686,Motor_Task,2023.2.2,MacIntel,30.3030303,43.36,43.927,3,1,0.56,,7,3,73,3,1,4,R,,3,,,,,,,
,,,,,,,,,,1,,2024-09-24_15h34.44.686,Motor_Task,2023.2.2,MacIntel,30.3030303,43.927,44.36,1,1,0.403,,7,4,74,4,1,5,I,,1,,,,,,,
,,,,,,,,,,1,,2024-09-24_15h34.44.686,Motor_Task,2023.2.2,MacIntel,30.3030303,44.361,44.893,1,1,0.517,,7,5,75,5,1,6,I,,1,,,,,,,
,,,,,,,,,,1,,2024-09-24_15h34.44.686,Motor_Task,2023.2.2,MacIntel,30.3030303,44.894,45.36,3,1,0.458,,7,6,76,6,1,7,R,,3,,,,,,,
,,,,,,,,,,1,,2024-09-24_15h34.44.686,Motor_Task,2023.2.2,MacIntel,30.3030303,45.361,45.693,2,1,0.317,,7,7,77,7,1,8,M,,2,,,,,,,
,,,,,,,,,,1,,2024-09-24_15h34.44.686,Motor_Task,2023.2.2,MacIntel,30.3030303,45.693,46.327,4,1,0.617,,7,8,78,8,1,9,L,,4,,,,,,,
,,,,,,,,,,1,,2024-09-24_15h34.44.686,Motor_Task,2023.2.2,MacIntel,30.3030303,46.327,46.793,1,1,0.44,,7,9,79,9,1,10,I,,1,,,,,,,
,,,,,,,,,,1,,2024-09-24_15h34.44.686,Motor_Task,2023.2.2,MacIntel,30.3030303,46.794,47.227,2,1,0.431,,8,0,80,0,1,1,M,,2,,,,,,,
,,,,,,,,,,1,,2024-09-24_15h34.44.686,Motor_Task,2023.2.2,MacIntel,30.3030303,47.228,47.693,3,1,0.445,,8,1,81,1,1,2,R,,3,,,,,,,
,,,,,,,,,,1,,2024-09-24_15h34.44.686,Motor_Task,2023.2.2,MacIntel,30.3030303,47.694,48.227,2,1,0.53,,8,2,82,2,1,3,M,,2,,,,,,,
,,,,,,,,,,1,,2024-09-24_15h34.44.686,Motor_Task,2023.2.2,MacIntel,30.3030303,48.227,48.759,3,1,0.528,,8,3,83,3,1,4,R,,3,,,,,,,
,,,,,,,,,,1,,2024-09-24_15h34.44.686,Motor_Task,2023.2.2,MacIntel,30.3030303,48.76,49.228,1,1,0.464,,8,4,84,4,1,5,I,,1,,,,,,,
,,,,,,,,,,1,,2024-09-24_15h34.44.686,Motor_Task,2023.2.2,MacIntel,30.3030303,49.228,49.86,1,1,0.61,,8,5,85,5,1,6,I,,1,,,,,,,
,,,,,,,,,,1,,2024-09-24_15h34.44.686,Motor_Task,2023.2.2,MacIntel,30.3030303,49.86,50.46,3,1,0.569,,8,6,86,6,1,7,R,,3,,,,,,,
,,,,,,,,,,1,,2024-09-24_15h34.44.686,Motor_Task,2023.2.2,MacIntel,30.3030303,50.46,50.893,2,1,0.412,,8,7,87,7,1,8,M,,2,,,,,,,
,,,,,,,,,,1,,2024-09-24_15h34.44.686,Motor_Task,2023.2.2,MacIntel,30.3030303,50.894,51.527,4,1,0.62,,8,8,88,8,1,9,L,,4,,,,,,,
,,,,,,,,,,1,,2024-09-24_15h34.44.686,Motor_Task,2023.2.2,MacIntel,30.3030303,51.527,51.993,1,1,0.448,,8,9,89,9,1,10,I,,1,,,,,,,
,,,,,,,,,,1,,2024-09-24_15h34.44.686,Motor_Task,2023.2.2,MacIntel,30.3030303,51.993,52.492,2,1,0.474,,9,0,90,0,1,1,M,,2,,,,,,,
,,,,,,,,,,1,,2024-09-24_15h34.44.686,Motor_Task,2023.2.2,MacIntel,30.3030303,52.493,53.36,3,1,0.859,,9,1,91,1,1,2,R,,3,,,,,,,
,,,,,,,,,,1,,2024-09-24_15h34.44.686,Motor_Task,2023.2.2,MacIntel,30.3030303,53.36,53.793,2,1,0.416,,9,2,92,2,1,3,M,,2,,,,,,,
,,,,,,,,,,1,,2024-09-24_15h34.44.686,Motor_Task,2023.2.2,MacIntel,30.3030303,53.793,54.259,3,1,0.435,,9,3,93,3,1,4,R,,3,,,,,,,
,,,,,,,,,,1,,2024-09-24_15h34.44.686,Motor_Task,2023.2.2,MacIntel,30.3030303,54.259,54.827,1,1,0.555,,9,4,94,4,1,5,I,,1,,,,,,,
,,,,,,,,,,1,,2024-09-24_15h34.44.686,Motor_Task,2023.2.2,MacIntel,30.3030303,54.827,55.326,1,1,0.48,,9,5,95,5,1,6,I,,1,,,,,,,
,,,,,,,,,,1,,2024-09-24_15h34.44.686,Motor_Task,2023.2.2,MacIntel,30.3030303,55.327,55.827,3,1,0.469,,9,6,96,6,1,7,R,,3,,,,,,,
,,,,,,,,,,1,,2024-09-24_15h34.44.686,Motor_Task,2023.2.2,MacIntel,30.3030303,55.828,56.26,2,1,0.414,,9,7,97,7,1,8,M,,2,,,,,,,
,,,,,,,,,,1,,2024-09-24_15h34.44.686,Motor_Task,2023.2.2,MacIntel,30.3030303,56.261,56.86,4,1,0.579,,9,8,98,8,1,9,L,,4,,,,,,,
,,,,,,,,,,1,,2024-09-24_15h34.44.686,Motor_Task,2023.2.2,MacIntel,30.3030303,56.861,57.326,1,1,0.448,,9,9,99,9,1,10,I,,1,,,,,,,
,,,,,,,,,,1,,2024-09-24_15h34.44.686,Motor_Task,2023.2.2,MacIntel,30.3030303,57.327,57.759,2,1,0.404,,10,0,100,0,1,1,M,,2,,,,,,,
,,,,,,,,,,1,,2024-09-24_15h34.44.686,Motor_Task,2023.2.2,MacIntel,30.3030303,57.76,58.159,3,1,0.379,,10,1,101,1,1,2,R,,3,,,,,,,
,,,,,,,,,,1,,2024-09-24_15h34.44.686,Motor_Task,2023.2.2,MacIntel,30.3030303,58.16,58.593,1,0,0.412,,10,2,102,2,1,3,M,,2,,,,,,,
,,,,,,,,,,1,,2024-09-24_15h34.44.686,Motor_Task,2023.2.2,MacIntel,30.3030303,58.593,59.192,3,1,0.568,,10,3,103,3,1,4,R,,3,,,,,,,
,,,,,,,,,,1,,2024-09-24_15h34.44.686,Motor_Task,2023.2.2,MacIntel,30.3030303,59.193,59.76,1,1,0.553,,10,4,104,4,1,5,I,,1,,,,,,,
,,,,,,,,,,1,,2024-09-24_15h34.44.686,Motor_Task,2023.2.2,MacIntel,30.3030303,59.76,60.294,1,1,0.506,,10,5,105,5,1,6,I,,1,,,,,,,
,,,,,,,,,,1,,2024-09-24_15h34.44.686,Motor_Task,2023.2.2,MacIntel,30.3030303,60.294,60.793,3,1,0.496,,10,6,106,6,1,7,R,,3,,,,,,,
,,,,,,,,,,1,,2024-09-24_15h34.44.686,Motor_Task,2023.2.2,MacIntel,30.3030303,60.794,61.226,2,1,0.412,,10,7,107,7,1,8,M,,2,,,,,,,
,,,,,,,,,,1,,2024-09-24_15h34.44.686,Motor_Task,2023.2.2,MacIntel,30.3030303,61.227,61.794,4,1,0.565,,10,8,108,8,1,9,L,,4,,,,,,,
,,,,,,,,,,1,,2024-09-24_15h34.44.686,Motor_Task,2023.2.2,MacIntel,30.3030303,61.794,62.26,1,1,0.461,,10,9,109,9,1,10,I,,1,,,,,,,
,,,,,,,,,,1,,2024-09-24_15h34.44.686,Motor_Task,2023.2.2,MacIntel,30.3030303,62.26,62.693,2,1,0.427,,11,0,110,0,1,1,M,,2,,,,,,,
,,,,,,,,,,1,,2024-09-24_15h34.44.686,Motor_Task,2023.2.2,MacIntel,30.3030303,62.694,63.126,3,1,0.403,,11,1,111,1,1,2,R,,3,,,,,,,
,,,,,,,,,,1,,2024-09-24_15h34.44.686,Motor_Task,2023.2.2,MacIntel,30.3030303,63.127,63.526,2,1,0.382,,11,2,112,2,1,3,M,,2,,,,,,,
,,,,,,,,,,1,,2024-09-24_15h34.44.686,Motor_Task,2023.2.2,MacIntel,30.3030303,63.527,63.959,3,1,0.413,,11,3,113,3,1,4,R,,3,,,,,,,
,,,,,,,,,,1,,2024-09-24_15h34.44.686,Motor_Task,2023.2.2,MacIntel,30.3030303,63.96,64.459,1,1,0.495,,11,4,114,4,1,5,I,,1,,,,,,,
,,,,,,,,,,1,,2024-09-24_15h34.44.686,Motor_Task,2023.2.2,MacIntel,30.3030303,64.46,64.959,1,1,0.485,,11,5,115,5,1,6,I,,1,,,,,,,
,,,,,,,,,,1,,2024-09-24_15h34.44.686,Motor_Task,2023.2.2,MacIntel,30.3030303,64.959,65.426,3,1,0.441,,11,6,116,6,1,7,R,,3,,,,,,,
,,,,,,,,,,1,,2024-09-24_15h34.44.686,Motor_Task,2023.2.2,MacIntel,30.3030303,65.427,65.826,2,1,0.389,,11,7,117,7,1,8,M,,2,,,,,,,
,,,,,,,,,,1,,2024-09-24_15h34.44.686,Motor_Task,2023.2.2,MacIntel,30.3030303,65.826,66.226,1,0,0.394,,11,8,118,8,1,9,L,,4,,,,,,,
,,,,,,,,,,1,,2024-09-24_15h34.44.686,Motor_Task,2023.2.2,MacIntel,30.3030303,66.227,66.326,4,0,0.073,,11,9,119,9,1,10,I,,1,,,,,,,
,,,,,,,,,,1,,2024-09-24_15h34.44.686,Motor_Task,2023.2.2,MacIntel,30.3030303,66.327,66.959,2,1,0.609,,12,0,120,0,1,1,M,,2,,,,,,,
,,,,,,,,,,1,,2024-09-24_15h34.44.686,Motor_Task,2023.2.2,MacIntel,30.3030303,66.959,67.593,3,1,0.625,,12,1,121,1,1,2,R,,3,,,,,,,
,,,,,,,,,,1,,2024-09-24_15h34.44.686,Motor_Task,2023.2.2,MacIntel,30.3030303,67.594,68.06,1,0,0.455,,12,2,122,2,1,3,M,,2,,,,,,,
,,,,,,,,,,1,,2024-09-24_15h34.44.686,Motor_Task,2023.2.2,MacIntel,30.3030303,68.06,68.66,2,0,0.575,,12,3,123,3,1,4,R,,3,,,,,,,
,,,,,,,,,,1,,2024-09-24_15h34.44.686,Motor_Task,2023.2.2,MacIntel,30.3030303,68.66,69.293,1,1,0.62,,12,4,124,4,1,5,I,,1,,,,,,,
,,,,,,,,,,1,,2024-09-24_15h34.44.686,Motor_Task,2023.2.2,MacIntel,30.3030303,69.293,69.659,2,0,0.343,,12,5,125,5,1,6,I,,1,,,,,,,
,,,,,,,,,,1,,2024-09-24_15h34.44.686,Motor_Task,2023.2.2,MacIntel,30.3030303,69.659,70.326,3,1,0.662,,12,6,126,6,1,7,R,,3,,,,,,,
,,,,,,,,,,1,,2024-09-24_15h34.44.686,Motor_Task,2023.2.2,MacIntel,30.3030303,70.327,70.757,2,1,0.416,,12,7,127,7,1,8,M,,2,,,,,,,
,,,,,,,,,,1,,2024-09-24_15h34.44.686,Motor_Task,2023.2.2,MacIntel,30.3030303,70.758,71.26,4,1,0.494,,12,8,128,8,1,9,L,,4,,,,,,,
,,,,,,,,,,1,,2024-09-24_15h34.44.686,Motor_Task,2023.2.2,MacIntel,30.3030303,71.26,71.793,1,1,0.503,,12,9,129,9,1,10,I,,1,,,,,,,
,,,,,,,,,,1,,2024-09-24_15h34.44.686,Motor_Task,2023.2.2,MacIntel,30.3030303,71.794,72.261,2,1,0.464,,13,0,130,0,1,1,M,,2,,,,,,,
,,,,,,,,,,1,,2024-09-24_15h34.44.686,Motor_Task,2023.2.2,MacIntel,30.3030303,72.261,72.826,3,1,0.536,,13,1,131,1,1,2,R,,3,,,,,,,
,,,,,,,,,,1,,2024-09-24_15h34.44.686,Motor_Task,2023.2.2,MacIntel,30.3030303,72.827,73.258,1,0,0.414,,13,2,132,2,1,3,M,,2,,,,,,,
,,,,,,,,,,1,,2024-09-24_15h34.44.686,Motor_Task,2023.2.2,MacIntel,30.3030303,73.259,73.793,3,1,0.51,,13,3,133,3,1,4,R,,3,,,,,,,
,,,,,,,,,,1,,2024-09-24_15h34.44.686,Motor_Task,2023.2.2,MacIntel,30.3030303,73.794,74.36,1,1,0.536,,13,4,134,4,1,5,I,,1,,,,,,,
,,,,,,,,,,1,,2024-09-24_15h34.44.686,Motor_Task,2023.2.2,MacIntel,30.3030303,74.36,74.826,1,1,0.449,,13,5,135,5,1,6,I,,1,,,,,,,
,,,,,,,,,,1,,2024-09-24_15h34.44.686,Motor_Task,2023.2.2,MacIntel,30.3030303,74.826,75.36,3,1,0.503,,13,6,136,6,1,7,R,,3,,,,,,,
,,,,,,,,,,1,,2024-09-24_15h34.44.686,Motor_Task,2023.2.2,MacIntel,30.3030303,75.36,75.793,2,1,0.41,,13,7,137,7,1,8,M,,2,,,,,,,
,,,,,,,,,,1,,2024-09-24_15h34.44.686,Motor_Task,2023.2.2,MacIntel,30.3030303,75.794,76.259,3,0,0.455,,13,8,138,8,1,9,L,,4,,,,,,,
,,,,,,,,,,1,,2024-09-24_15h34.44.686,Motor_Task,2023.2.2,MacIntel,30.3030303,76.26,76.793,1,1,0.527,,13,9,139,9,1,10,I,,1,,,,,,,
,,,,,,,,,,1,,2024-09-24_15h34.44.686,Motor_Task,2023.2.2,MacIntel,30.3030303,76.794,77.226,2,1,0.432,,14,0,140,0,1,1,M,,2,,,,,,,
,,,,,,,,,,1,,2024-09-24_15h34.44.686,Motor_Task,2023.2.2,MacIntel,30.3030303,77.227,77.661,3,1,0.431,,14,1,141,1,1,2,R,,3,,,,,,,
,,,,,,,,,,1,,2024-09-24_15h34.44.686,Motor_Task,2023.2.2,MacIntel,30.3030303,77.661,78.093,2,1,0.424,,14,2,142,2,1,3,M,,2,,,,,,,
,,,,,,,,,,1,,2024-09-24_15h34.44.686,Motor_Task,2023.2.2,MacIntel,30.3030303,78.094,78.559,3,1,0.459,,14,3,143,3,1,4,R,,3,,,,,,,
,,,,,,,,,,1,,2024-09-24_15h34.44.686,Motor_Task,2023.2.2,MacIntel,30.3030303,78.56,79.092,1,1,0.508,,14,4,144,4,1,5,I,,1,,,,,,,
,,,,,,,,,,1,,2024-09-24_15h34.44.686,Motor_Task,2023.2.2,MacIntel,30.3030303,79.093,79.593,1,1,0.473,,14,5,145,5,1,6,I,,1,,,,,,,
,,,,,,,,,,1,,2024-09-24_15h34.44.686,Motor_Task,2023.2.2,MacIntel,30.3030303,79.594,80.06,3,1,0.442,,14,6,146,6,1,7,R,,3,,,,,,,
,,,,,,,,,,1,,2024-09-24_15h34.44.686,Motor_Task,2023.2.2,MacIntel,30.3030303,80.06,80.493,2,1,0.412,,14,7,147,7,1,8,M,,2,,,,,,,
,,,,,,,,,,1,,2024-09-24_15h34.44.686,Motor_Task,2023.2.2,MacIntel,30.3030303,80.494,81.159,4,1,0.661,,14,8,148,8,1,9,L,,4,,,,,,,
,,,,,,,,,,1,,2024-09-24_15h34.44.686,Motor_Task,2023.2.2,MacIntel,30.3030303,81.159,81.66,1,1,0.47,,14,9,149,9,1,10,I,,1,,,,,,,
,,,,,,,,,,1,,2024-09-24_15h34.44.686,Motor_Task,2023.2.2,MacIntel,30.3030303,81.66,82.16,2,1,0.482,,15,0,150,0,1,1,M,,2,,,,,,,
,,,,,,,,,,1,,2024-09-24_15h34.44.686,Motor_Task,2023.2.2,MacIntel,30.3030303,82.16,82.693,2,0,0.505,,15,1,151,1,1,2,R,,3,,,,,,,
,,,,,,,,,,1,,2024-09-24_15h34.44.686,Motor_Task,2023.2.2,MacIntel,30.3030303,82.694,83.293,2,1,0.576,,15,2,152,2,1,3,M,,2,,,,,,,
,,,,,,,,,,1,,2024-09-24_15h34.44.686,Motor_Task,2023.2.2,MacIntel,30.3030303,83.294,84.026,3,1,0.722,,15,3,153,3,1,4,R,,3,,,,,,,
,,,,,,,,,,1,,2024-09-24_15h34.44.686,Motor_Task,2023.2.2,MacIntel,30.3030303,84.027,84.626,1,1,0.588,,15,4,154,4,1,5,I,,1,,,,,,,
,,,,,,,,,,1,,2024-09-24_15h34.44.686,Motor_Task,2023.2.2,MacIntel,30.3030303,84.626,85.094,1,1,0.463,,15,5,155,5,1,6,I,,1,,,,,,,
,,,,,,,,,,1,,2024-09-24_15h34.44.686,Motor_Task,2023.2.2,MacIntel,30.3030303,85.094,85.56,3,1,0.45,,15,6,156,6,1,7,R,,3,,,,,,,
,,,,,,,,,,1,,2024-09-24_15h34.44.686,Motor_Task,2023.2.2,MacIntel,30.3030303,85.56,85.993,2,1,0.416,,15,7,157,7,1,8,M,,2,,,,,,,
,,,,,,,,,,1,,2024-09-24_15h34.44.686,Motor_Task,2023.2.2,MacIntel,30.3030303,85.993,86.526,4,1,0.519,,15,8,158,8,1,9,L,,4,,,,,,,
,,,,,,,,,,1,,2024-09-24_15h34.44.686,Motor_Task,2023.2.2,MacIntel,30.3030303,86.527,86.993,1,1,0.455,,15,9,159,9,1,10,I,,1,,,,,,,
,,,,,,,,,,1,,2024-09-24_15h34.44.686,Motor_Task,2023.2.2,MacIntel,30.3030303,86.994,87.46,2,1,0.45,,16,0,160,0,1,1,M,,2,,,,,,,
,,,,,,,,,,1,,2024-09-24_15h34.44.686,Motor_Task,2023.2.2,MacIntel,30.3030303,87.46,87.926,3,1,0.457,,16,1,161,1,1,2,R,,3,,,,,,,
,,,,,,,,,,1,,2024-09-24_15h34.44.686,Motor_Task,2023.2.2,MacIntel,30.3030303,87.927,88.626,2,1,0.685,,16,2,162,2,1,3,M,,2,,,,,,,
,,,,,,,,,,1,,2024-09-24_15h34.44.686,Motor_Task,2023.2.2,MacIntel,30.3030303,88.626,89.093,3,1,0.46,,16,3,163,3,1,4,R,,3,,,,,,,
,,,,,,,,,,1,,2024-09-24_15h34.44.686,Motor_Task,2023.2.2,MacIntel,30.3030303,89.093,89.625,1,1,0.521,,16,4,164,4,1,5,I,,1,,,,,,,
,,,,,,,,,,1,,2024-09-24_15h34.44.686,Motor_Task,2023.2.2,MacIntel,30.3030303,89.626,90.126,1,1,0.48,,16,5,165,5,1,6,I,,1,,,,,,,
,,,,,,,,,,1,,2024-09-24_15h34.44.686,Motor_Task,2023.2.2,MacIntel,30.3030303,90.127,90.661,3,1,0.531,,16,6,166,6,1,7,R,,3,,,,,,,
,,,,,,,,,,1,,2024-09-24_15h34.44.686,Motor_Task,2023.2.2,MacIntel,30.3030303,90.661,91.125,2,1,0.44,,16,7,167,7,1,8,M,,2,,,,,,,
,,,,,,,,,,1,,2024-09-24_15h34.44.686,Motor_Task,2023.2.2,MacIntel,30.3030303,91.126,91.759,4,1,0.612,,16,8,168,8,1,9,L,,4,,,,,,,
,,,,,,,,,,1,,2024-09-24_15h34.44.686,Motor_Task,2023.2.2,MacIntel,30.3030303,91.76,92.426,1,1,0.662,,16,9,169,9,1,10,I,,1,,,,,,,
,,,,,,,,,,1,,2024-09-24_15h34.44.686,Motor_Task,2023.2.2,MacIntel,30.3030303,92.426,92.826,2,1,0.385,,17,0,170,0,1,1,M,,2,,,,,,,
,,,,,,,,,,1,,2024-09-24_15h34.44.686,Motor_Task,2023.2.2,MacIntel,30.3030303,92.827,93.226,3,1,0.381,,17,1,171,1,1,2,R,,3,,,,,,,
,,,,,,,,,,1,,2024-09-24_15h34.44.686,Motor_Task,2023.2.2,MacIntel,30.3030303,93.226,93.792,2,1,0.555,,17,2,172,2,1,3,M,,2,,,,,,,
,,,,,,,,,,1,,2024-09-24_15h34.44.686,Motor_Task,2023.2.2,MacIntel,30.3030303,93.793,94.459,3,1,0.649,,17,3,173,3,1,4,R,,3,,,,,,,
,,,,,,,,,,1,,2024-09-24_15h34.44.686,Motor_Task,2023.2.2,MacIntel,30.3030303,94.459,94.96,1,1,0.477,,17,4,174,4,1,5,I,,1,,,,,,,
,,,,,,,,,,1,,2024-09-24_15h34.44.686,Motor_Task,2023.2.2,MacIntel,30.3030303,94.96,95.46,1,1,0.486,,17,5,175,5,1,6,I,,1,,,,,,,
,,,,,,,,,,1,,2024-09-24_15h34.44.686,Motor_Task,2023.2.2,MacIntel,30.3030303,95.46,96.26,3,1,0.781,,17,6,176,6,1,7,R,,3,,,,,,,
,,,,,,,,,,1,,2024-09-24_15h34.44.686,Motor_Task,2023.2.2,MacIntel,30.3030303,96.26,96.826,2,1,0.564,,17,7,177,7,1,8,M,,2,,,,,,,
,,,,,,,,,,1,,2024-09-24_15h34.44.686,Motor_Task,2023.2.2,MacIntel,30.3030303,96.826,97.393,4,1,0.538,,17,8,178,8,1,9,L,,4,,,,,,,
,,,,,,,,,,1,,2024-09-24_15h34.44.686,Motor_Task,2023.2.2,MacIntel,30.3030303,97.393,97.828,1,1,0.431,,17,9,179,9,1,10,I,,1,,,,,,,
,,,,,,,,,,1,,2024-09-24_15h34.44.686,Motor_Task,2023.2.2,MacIntel,30.3030303,97.828,98.26,2,1,0.405,,18,0,180,0,1,1,M,,2,,,,,,,
,,,,,,,,,,1,,2024-09-24_15h34.44.686,Motor_Task,2023.2.2,MacIntel,30.3030303,98.26,98.66,3,1,0.373,,18,1,181,1,1,2,R,,3,,,,,,,
,,,,,,,,,,1,,2024-09-24_15h34.44.686,Motor_Task,2023.2.2,MacIntel,30.3030303,98.66,99.293,2,1,0.609,,18,2,182,2,1,3,M,,2,,,,,,,
,,,,,,,,,,1,,2024-09-24_15h34.44.686,Motor_Task,2023.2.2,MacIntel,30.3030303,99.293,99.792,3,1,0.486,,18,3,183,3,1,4,R,,3,,,,,,,
,,,,,,,,,,1,,2024-09-24_15h34.44.686,Motor_Task,2023.2.2,MacIntel,30.3030303,99.793,100.293,1,1,0.496,,18,4,184,4,1,5,I,,1,,,,,,,
,,,,,,,,,,1,,2024-09-24_15h34.44.686,Motor_Task,2023.2.2,MacIntel,30.3030303,100.293,100.892,1,1,0.567,,18,5,185,5,1,6,I,,1,,,,,,,
,,,,,,,,,,1,,2024-09-24_15h34.44.686,Motor_Task,2023.2.2,MacIntel,30.3030303,100.893,101.359,3,1,0.459,,18,6,186,6,1,7,R,,3,,,,,,,
,,,,,,,,,,1,,2024-09-24_15h34.44.686,Motor_Task,2023.2.2,MacIntel,30.3030303,101.36,101.76,2,1,0.398,,18,7,187,7,1,8,M,,2,,,,,,,
,,,,,,,,,,1,,2024-09-24_15h34.44.686,Motor_Task,2023.2.2,MacIntel,30.3030303,101.761,102.426,4,1,0.662,,18,8,188,8,1,9,L,,4,,,,,,,
,,,,,,,,,,1,,2024-09-24_15h34.44.686,Motor_Task,2023.2.2,MacIntel,30.3030303,102.427,102.892,1,1,0.458,,18,9,189,9,1,10,I,,1,,,,,,,
,,,,,,,,,,1,,2024-09-24_15h34.44.686,Motor_Task,2023.2.2,MacIntel,30.3030303,102.893,103.359,2,1,0.436,,19,0,190,0,1,1,M,,2,,,,,,,
,,,,,,,,,,1,,2024-09-24_15h34.44.686,Motor_Task,2023.2.2,MacIntel,30.3030303,103.36,103.726,3,1,0.346,,19,1,191,1,1,2,R,,3,,,,,,,
,,,,,,,,,,1,,2024-09-24_15h34.44.686,Motor_Task,2023.2.2,MacIntel,30.3030303,103.727,104.126,2,1,0.388,,19,2,192,2,1,3,M,,2,,,,,,,
,,,,,,,,,,1,,2024-09-24_15h34.44.686,Motor_Task,2023.2.2,MacIntel,30.3030303,104.127,104.525,3,1,0.392,,19,3,193,3,1,4,R,,3,,,,,,,
,,,,,,,,,,1,,2024-09-24_15h34.44.686,Motor_Task,2023.2.2,MacIntel,30.3030303,104.526,104.96,2,0,0.41,,19,4,194,4,1,5,I,,1,,,,,,,
,,,,,,,,,,1,,2024-09-24_15h34.44.686,Motor_Task,2023.2.2,MacIntel,30.3030303,104.96,105.593,1,1,0.625,,19,5,195,5,1,6,I,,1,,,,,,,
,,,,,,,,,,1,,2024-09-24_15h34.44.686,Motor_Task,2023.2.2,MacIntel,30.3030303,105.593,106.092,3,1,0.487,,19,6,196,6,1,7,R,,3,,,,,,,
,,,,,,,,,,1,,2024-09-24_15h34.44.686,Motor_Task,2023.2.2,MacIntel,30.3030303,106.093,106.593,2,1,0.495,,19,7,197,7,1,8,M,,2,,,,,,,
,,,,,,,,,,1,,2024-09-24_15h34.44.686,Motor_Task,2023.2.2,MacIntel,30.3030303,106.593,107.226,4,1,0.616,,19,8,198,8,1,9,L,,4,,,,,,,
,,,,,,,,,,1,,2024-09-24_15h34.44.686,Motor_Task,2023.2.2,MacIntel,30.3030303,107.227,107.724,1,1,0.468,,19,9,199,9,1,10,I,,1,,,,,,,
,,,,,,,,,,1,,2024-09-24_15h34.44.686,Motor_Task,2023.2.2,MacIntel,30.3030303,107.736,108.359,1,1,0.594,,,,,,,10,I,,1,0,0,0,9,1,,
,,,,,,,,,,1,,2024-09-24_15h34.44.686,Motor_Task,2023.2.2,MacIntel,30.3030303,108.36,108.893,4,1,0.528,,,,,,,9,L,,4,0,1,1,8,1,,
,,,,,,,,,,1,,2024-09-24_15h34.44.686,Motor_Task,2023.2.2,MacIntel,30.3030303,108.893,109.526,3,1,0.615,,,,,,,2,R,,3,0,2,2,1,1,,
,,,,,,,,,,1,,2024-09-24_15h34.44.686,Motor_Task,2023.2.2,MacIntel,30.3030303,109.526,109.99,2,1,0.449,,,,,,,8,M,,2,0,3,3,7,1,,
,,,,,,,,,,1,,2024-09-24_15h34.44.686,Motor_Task,2023.2.2,MacIntel,30.3030303,109.99,110.426,1,1,0.405,,,,,,,6,I,,1,0,4,4,5,1,,
,,,,,,,,,,1,,2024-09-24_15h34.44.686,Motor_Task,2023.2.2,MacIntel,30.3030303,110.426,110.892,3,1,0.455,,,,,,,7,R,,3,0,5,5,6,1,,
,,,,,,,,,,1,,2024-09-24_15h34.44.686,Motor_Task,2023.2.2,MacIntel,30.3030303,110.892,111.466,3,1,0.548,,,,,,,4,R,,3,0,6,6,3,1,,
,,,,,,,,,,1,,2024-09-24_15h34.44.686,Motor_Task,2023.2.2,MacIntel,30.3030303,111.467,112.031,2,1,0.542,,,,,,,3,M,,2,0,7,7,2,1,,
,,,,,,,,,,1,,2024-09-24_15h34.44.686,Motor_Task,2023.2.2,MacIntel,30.3030303,112.032,112.631,1,1,0.584,,,,,,,5,I,,1,0,8,8,4,1,,
,,,,,,,,,,1,,2024-09-24_15h34.44.686,Motor_Task,2023.2.2,MacIntel,30.3030303,112.632,113.062,2,1,0.405,,,,,,,1,M,,2,0,9,9,0,1,,
,,,,,,,,,,1,,2024-09-24_15h34.44.686,Motor_Task,2023.2.2,MacIntel,30.3030303,113.063,113.596,1,1,0.51,,,,,,,10,I,,1,1,0,10,9,1,,
,,,,,,,,,,1,,2024-09-24_15h34.44.686,Motor_Task,2023.2.2,MacIntel,30.3030303,113.597,114.097,1,1,0.489,,,,,,,5,I,,1,1,1,11,4,1,,
,,,,,,,,,,1,,2024-09-24_15h34.44.686,Motor_Task,2023.2.2,MacIntel,30.3030303,114.097,114.597,2,1,0.491,,,,,,,3,M,,2,1,2,12,2,1,,
,,,,,,,,,,1,,2024-09-24_15h34.44.686,Motor_Task,2023.2.2,MacIntel,30.3030303,114.597,114.996,3,1,0.392,,,,,,,4,R,,3,1,3,13,3,1,,
,,,,,,,,,,1,,2024-09-24_15h34.44.686,Motor_Task,2023.2.2,MacIntel,30.3030303,114.997,115.496,3,1,0.485,,,,,,,7,R,,3,1,4,14,6,1,,
,,,,,,,,,,1,,2024-09-24_15h34.44.686,Motor_Task,2023.2.2,MacIntel,30.3030303,115.497,116.029,4,1,0.52,,,,,,,9,L,,4,1,5,15,8,1,,
,,,,,,,,,,1,,2024-09-24_15h34.44.686,Motor_Task,2023.2.2,MacIntel,30.3030303,116.029,116.562,3,1,0.508,,,,,,,2,R,,3,1,6,16,1,1,,
,,,,,,,,,,1,,2024-09-24_15h34.44.686,Motor_Task,2023.2.2,MacIntel,30.3030303,116.562,117.328,1,1,0.737,,,,,,,6,I,,1,1,7,17,5,1,,
,,,,,,,,,,1,,2024-09-24_15h34.44.686,Motor_Task,2023.2.2,MacIntel,30.3030303,117.329,117.762,2,1,0.43,,,,,,,1,M,,2,1,8,18,0,1,,
,,,,,,,,,,1,,2024-09-24_15h34.44.686,Motor_Task,2023.2.2,MacIntel,30.3030303,117.762,118.295,2,1,0.53,,,,,,,8,M,,2,1,9,19,7,1,,
,,,,,,,,,,1,,2024-09-24_15h34.44.686,Motor_Task,2023.2.2,MacIntel,30.3030303,118.296,118.862,1,1,0.563,,,,,,,10,I,,1,2,0,20,9,1,,
,,,,,,,,,,1,,2024-09-24_15h34.44.686,Motor_Task,2023.2.2,MacIntel,30.3030303,118.862,119.26,2,1,0.386,,,,,,,3,M,,2,2,1,21,2,1,,
,,,,,,,,,,1,,2024-09-24_15h34.44.686,Motor_Task,2023.2.2,MacIntel,30.3030303,119.261,119.795,1,1,0.532,,,,,,,6,I,,1,2,2,22,5,1,,
,,,,,,,,,,1,,2024-09-24_15h34.44.686,Motor_Task,2023.2.2,MacIntel,30.3030303,119.796,120.227,2,1,0.407,,,,,,,1,M,,2,2,3,23,0,1,,
,,,,,,,,,,1,,2024-09-24_15h34.44.686,Motor_Task,2023.2.2,MacIntel,30.3030303,120.227,120.793,1,1,0.547,,,,,,,5,I,,1,2,4,24,4,1,,
,,,,,,,,,,1,,2024-09-24_15h34.44.686,Motor_Task,2023.2.2,MacIntel,30.3030303,120.794,121.36,3,1,0.564,,,,,,,4,R,,3,2,5,25,3,1,,
,,,,,,,,,,1,,2024-09-24_15h34.44.686,Motor_Task,2023.2.2,MacIntel,30.3030303,121.361,121.76,2,1,0.387,,,,,,,8,M,,2,2,6,26,7,1,,
,,,,,,,,,,1,,2024-09-24_15h34.44.686,Motor_Task,2023.2.2,MacIntel,30.3030303,121.76,122.227,3,1,0.44,,,,,,,2,R,,3,2,7,27,1,1,,
,,,,,,,,,,1,,2024-09-24_15h34.44.686,Motor_Task,2023.2.2,MacIntel,30.3030303,122.227,122.826,3,1,0.592,,,,,,,7,R,,3,2,8,28,6,1,,
,,,,,,,,,,1,,2024-09-24_15h34.44.686,Motor_Task,2023.2.2,MacIntel,30.3030303,122.827,123.426,4,1,0.579,,,,,,,9,L,,4,2,9,29,8,1,,
,,,,,,,,,,1,,2024-09-24_15h34.44.686,Motor_Task,2023.2.2,MacIntel,30.3030303,123.427,123.893,1,1,0.446,,,,,,,6,I,,1,3,0,30,5,1,,
,,,,,,,,,,1,,2024-09-24_15h34.44.686,Motor_Task,2023.2.2,MacIntel,30.3030303,123.893,124.493,1,1,0.589,,,,,,,5,I,,1,3,1,31,4,1,,
,,,,,,,,,,1,,2024-09-24_15h34.44.686,Motor_Task,2023.2.2,MacIntel,30.3030303,124.493,125.026,3,1,0.51,,,,,,,4,R,,3,3,2,32,3,1,,
,,,,,,,,,,1,,2024-09-24_15h34.44.686,Motor_Task,2023.2.2,MacIntel,30.3030303,125.027,125.526,2,1,0.486,,,,,,,3,M,,2,3,3,33,2,1,,
,,,,,,,,,,1,,2024-09-24_15h34.44.686,Motor_Task,2023.2.2,MacIntel,30.3030303,125.527,126.026,3,1,0.481,,,,,,,7,R,,3,3,4,34,6,1,,
,,,,,,,,,,1,,2024-09-24_15h34.44.686,Motor_Task,2023.2.2,MacIntel,30.3030303,126.027,126.589,4,1,0.559,,,,,,,9,L,,4,3,5,35,8,1,,
,,,,,,,,,,1,,2024-09-24_15h34.44.686,Motor_Task,2023.2.2,MacIntel,30.3030303,126.59,127.155,3,1,0.548,,,,,,,2,R,,3,3,6,36,1,1,,
,,,,,,,,,,1,,2024-09-24_15h34.44.686,Motor_Task,2023.2.2,MacIntel,30.3030303,127.156,127.822,1,1,0.64,,,,,,,10,I,,1,3,7,37,9,1,,
,,,,,,,,,,1,,2024-09-24_15h34.44.686,Motor_Task,2023.2.2,MacIntel,30.3030303,127.822,128.289,2,1,0.449,,,,,,,1,M,,2,3,8,38,0,1,,
,,,,,,,,,,1,,2024-09-24_15h34.44.686,Motor_Task,2023.2.2,MacIntel,30.3030303,128.289,128.722,2,1,0.414,,,,,,,8,M,,2,3,9,39,7,1,,
,,,,,,,,,,1,,2024-09-24_15h34.44.686,Motor_Task,2023.2.2,MacIntel,30.3030303,128.723,129.255,1,1,0.526,,,,,,,5,I,,1,4,0,40,4,1,,
,,,,,,,,,,1,,2024-09-24_15h34.44.686,Motor_Task,2023.2.2,MacIntel,30.3030303,129.256,129.789,3,1,0.506,,,,,,,7,R,,3,4,1,41,6,1,,
,,,,,,,,,,1,,2024-09-24_15h34.44.686,Motor_Task,2023.2.2,MacIntel,30.3030303,129.789,130.322,2,1,0.514,,,,,,,3,M,,2,4,2,42,2,1,,
,,,,,,,,,,1,,2024-09-24_15h34.44.686,Motor_Task,2023.2.2,MacIntel,30.3030303,130.323,130.755,3,1,0.424,,,,,,,4,R,,3,4,3,43,3,1,,
,,,,,,,,,,1,,2024-09-24_15h34.44.686,Motor_Task,2023.2.2,MacIntel,30.3030303,130.756,131.219,2,1,0.458,,,,,,,8,M,,2,4,4,44,7,1,,
,,,,,,,,,,1,,2024-09-24_15h34.44.686,Motor_Task,2023.2.2,MacIntel,30.3030303,131.22,131.822,1,1,0.581,,,,,,,10,I,,1,4,5,45,9,1,,
,,,,,,,,,,1,,2024-09-24_15h34.44.686,Motor_Task,2023.2.2,MacIntel,30.3030303,131.823,132.289,3,1,0.447,,,,,,,2,R,,3,4,6,46,1,1,,
,,,,,,,,,,1,,2024-09-24_15h34.44.686,Motor_Task,2023.2.2,MacIntel,30.3030303,132.289,132.889,4,1,0.589,,,,,,,9,L,,4,4,7,47,8,1,,
,,,,,,,,,,1,,2024-09-24_15h34.44.686,Motor_Task,2023.2.2,MacIntel,30.3030303,132.889,133.488,2,1,0.582,,,,,,,1,M,,2,4,8,48,0,1,,
,,,,,,,,,,1,,2024-09-24_15h34.44.686,Motor_Task,2023.2.2,MacIntel,30.3030303,133.488,134.122,1,1,0.626,,,,,,,6,I,,1,4,9,49,5,1,,
,,,,,,,,,,1,,2024-09-24_15h34.44.686,Motor_Task,2023.2.2,MacIntel,30.3030303,,,,,,,,,,,,,,,,,,,,,134.127,138.121