Trigger.started,Trigger.stopped,key_resp_4.keys,mouse.x,mouse.y,mouse.leftButton,mouse.midButton,mouse.rightButton,Session,Subject,date,expName,psychopyVersion,OS,frameRate,complex_block.started,complex_block.stopped,key_resp.keys,key_resp.corr,key_resp.rt,key_resp.duration,complex_block_loop.thisRepN,complex_block_loop.thisTrialN,complex_block_loop.thisN,complex_block_loop.thisIndex,complex_block_loop.ran,trial,finger,markerPos,correctResp,new_block_loop.thisRepN,new_block_loop.thisTrialN,new_block_loop.thisN,new_block_loop.thisIndex,new_block_loop.ran,endBuffer.started,endBuffer.stopped
0.0003,20.4476,,-0.158856607,-0.094189316,1,0,0,1,,2024-09-24_15h34.13.256,Motor_Task,2023.2.2,Win32,80.64516129,,,,,,,,,,,,,,,,,,,,,,
,,,,,,,,1,,2024-09-24_15h34.13.256,Motor_Task,2023.2.2,Win32,80.64516129,20.4957,21.4586,2,1,0.9615,,0,0,0,0,1,1,M,,2,,,,,,,
,,,,,,,,1,,2024-09-24_15h34.13.256,Motor_Task,2023.2.2,Win32,80.64516129,21.4589,22,3,1,0.5406,,0,1,1,1,1,2,R,,3,,,,,,,
,,,,,,,,1,,2024-09-24_15h34.13.256,Motor_Task,2023.2.2,Win32,80.64516129,22.0004,22.6019,2,1,0.6011,,0,2,2,2,1,3,M,,2,,,,,,,
,,,,,,,,1,,2024-09-24_15h34.13.256,Motor_Task,2023.2.2,Win32,80.64516129,22.6023,23.0987,3,1,0.4959,,0,3,3,3,1,4,R,,3,,,,,,,
,,,,,,,,1,,2024-09-24_15h34.13.256,Motor_Task,2023.2.2,Win32,80.64516129,23.0991,23.6953,1,1,0.596,,0,4,4,4,1,5,I,,1,,,,,,,
,,,,,,,,1,,2024-09-24_15h34.13.256,Motor_Task,2023.2.2,Win32,80.64516129,23.6956,24.272,1,1,0.5763,,0,5,5,5,1,6,I,,1,,,,,,,
,,,,,,,,1,,2024-09-24_15h34.13.256,Motor_Task,2023.2.2,Win32,80.64516129,24.2724,24.8588,3,1,0.586,,0,6,6,6,1,7,R,,3,,,,,,,
,,,,,,,,1,,2024-09-24_15h34.13.256,Motor_Task,2023.2.2,Win32,80.64516129,24.8591,25.3577,2,1,0.4983,,0,7,7,7,1,8,M,,2,,,,,,,
,,,,,,,,1,,2024-09-24_15h34.13.256,Motor_Task,2023.2.2,Win32,80.64516129,25.3581,25.8907,4,1,0.5323,,0,8,8,8,1,9,L,,4,,,,,,,
,,,,,,,,1,,2024-09-24_15h34.13.256,Motor_Task,2023.2.2,Win32,80.64516129,25.8911,26.5293,1,1,0.6378,,0,9,9,9,1,10,I,,1,,,,,,,
,,,,,,,,1,,2024-09-24_15h34.13.256,Motor_Task,2023.2.2,Win32,80.64516129,26.5296,27.0661,2,1,0.5364,,1,0,10,0,1,1,M,,2,,,,,,,
,,,,,,,,1,,2024-09-24_15h34.13.256,Motor_Task,2023.2.2,Win32,80.64516129,27.0664,27.698,3,1,0.6312,,1,1,11,1,1,2,R,,3,,,,,,,
,,,,,,,,1,,2024-09-24_15h34.13.256,Motor_Task,2023.2.2,Win32,80.64516129,27.6984,28.5323,2,1,0.8332,0.0002,1,2,12,2,1,3,M,,2,,,,,,,
,,,,,,,,1,,2024-09-24_15h34.13.256,Motor_Task,2023.2.2,Win32,80.64516129,28.5326,29.2442,3,1,0.711,,1,3,13,3,1,4,R,,3,,,,,,,
,,,,,,,,1,,2024-09-24_15h34.13.256,Motor_Task,2023.2.2,Win32,80.64516129,29.2446,29.8455,1,1,0.6004,,1,4,14,4,1,5,I,,1,,,,,,,
,,,,,,,,1,,2024-09-24_15h34.13.256,Motor_Task,2023.2.2,Win32,80.64516129,29.8458,30.4513,1,1,0.6051,,1,5,15,5,1,6,I,,1,,,,,,,
,,,,,,,,1,,2024-09-24_15h34.13.256,Motor_Task,2023.2.2,Win32,80.64516129,30.4517,31.2476,3,1,0.7956,,1,6,16,6,1,7,R,,3,,,,,,,
,,,,,,,,1,,2024-09-24_15h34.13.256,Motor_Task,2023.2.2,Win32,80.64516129,31.2479,31.8815,2,1,0.6333,,1,7,17,7,1,8,M,,2,,,,,,,
,,,,,,,,1,,2024-09-24_15h34.13.256,Motor_Task,2023.2.2,Win32,80.64516129,31.8818,32.4833,4,1,0.6011,,1,8,18,8,1,9,L,,4,,,,,,,
,,,,,,,,1,,2024-09-24_15h34.13.256,Motor_Task,2023.2.2,Win32,80.64516129,32.4835,33.1021,1,1,0.6177,,1,9,19,9,1,10,I,,1,,,,,,,
,,,,,,,,1,,2024-09-24_15h34.13.256,Motor_Task,2023.2.2,Win32,80.64516129,33.1024,33.7071,2,1,0.6041,,2,0,20,0,1,1,M,,2,,,,,,,
,,,,,,,,1,,2024-09-24_15h34.13.256,Motor_Task,2023.2.2,Win32,80.64516129,33.7073,34.2452,3,1,0.5356,,2,1,21,1,1,2,R,,3,,,,,,,
,,,,,,,,1,,2024-09-24_15h34.13.256,Motor_Task,2023.2.2,Win32,80.64516129,34.2455,34.7893,2,1,0.5434,,2,2,22,2,1,3,M,,2,,,,,,,
,,,,,,,,1,,2024-09-24_15h34.13.256,Motor_Task,2023.2.2,Win32,80.64516129,34.7896,35.3691,3,1,0.5787,,2,3,23,3,1,4,R,,3,,,,,,,
,,,,,,,,1,,2024-09-24_15h34.13.256,Motor_Task,2023.2.2,Win32,80.64516129,35.3694,36.0219,1,1,0.6522,,2,4,24,4,1,5,I,,1,,,,,,,
,,,,,,,,1,,2024-09-24_15h34.13.256,Motor_Task,2023.2.2,Win32,80.64516129,36.0222,36.6174,1,1,0.5948,,2,5,25,5,1,6,I,,1,,,,,,,
,,,,,,,,1,,2024-09-24_15h34.13.256,Motor_Task,2023.2.2,Win32,80.64516129,36.6178,37.3595,3,1,0.7414,,2,6,26,6,1,7,R,,3,,,,,,,
,,,,,,,,1,,2024-09-24_15h34.13.256,Motor_Task,2023.2.2,Win32,80.64516129,37.3597,37.9444,2,1,0.5845,,2,7,27,7,1,8,M,,2,,,,,,,
,,,,,,,,1,,2024-09-24_15h34.13.256,Motor_Task,2023.2.2,Win32,80.64516129,37.9447,38.5943,4,1,0.6494,,2,8,28,8,1,9,L,,4,,,,,,,
,,,,,,,,1,,2024-09-24_15h34.13.256,Motor_Task,2023.2.2,Win32,80.64516129,38.5946,39.189,1,1,0.5941,,2,9,29,9,1,10,I,,1,,,,,,,
,,,,,,,,1,,2024-09-24_15h34.13.256,Motor_Task,2023.2.2,Win32,80.64516129,39.1892,39.7712,2,1,0.5815,,3,0,30,0,1,1,M,,2,,,,,,,
,,,,,,,,1,,2024-09-24_15h34.13.256,Motor_Task,2023.2.2,Win32,80.64516129,39.7715,40.3435,3,1,0.5718,,3,1,31,1,1,2,R,,3,,,,,,,
,,,,,,,,1,,2024-09-24_15h34.13.256,Motor_Task,2023.2.2,Win32,80.64516129,40.3437,41.0007,2,1,0.6567,,3,2,32,2,1,3,M,,2,,,,,,,
,,,,,,,,1,,2024-09-24_15h34.13.256,Motor_Task,2023.2.2,Win32,80.64516129,41.001,41.7642,3,1,0.7629,,3,3,33,3,1,4,R,,3,,,,,,,
,,,,,,,,1,,2024-09-24_15h34.13.256,Motor_Task,2023.2.2,Win32,80.64516129,41.7646,42.2907,1,1,0.5258,,3,4,34,4,1,5,I,,1,,,,,,,
,,,,,,,,1,,2024-09-24_15h34.13.256,Motor_Task,2023.2.2,Win32,80.64516129,42.291,42.8894,1,1,0.598,,3,5,35,5,1,6,I,,1,,,,,,,
,,,,,,,,1,,2024-09-24_15h34.13.256,Motor_Task,2023.2.2,Win32,80.64516129,42.8896,43.5471,3,1,0.6572,,3,6,36,6,1,7,R,,3,,,,,,,
,,,,,,,,1,,2024-09-24_15h34.13.256,Motor_Task,2023.2.2,Win32,80.64516129,43.5473,44.2005,2,1,0.653,,3,7,37,7,1,8,M,,2,,,,,,,
,,,,,,,,1,,2024-09-24_15h34.13.256,Motor_Task,2023.2.2,Win32,80.64516129,44.2008,44.8198,4,1,0.6185,,3,8,38,8,1,9,L,,4,,,,,,,
,,,,,,,,1,,2024-09-24_15h34.13.256,Motor_Task,2023.2.2,Win32,80.64516129,44.8201,45.4726,1,1,0.6504,,3,9,39,9,1,10,I,,1,,,,,,,
,,,,,,,,1,,2024-09-24_15h34.13.256,Motor_Task,2023.2.2,Win32,80.64516129,45.473,46.1628,2,1,0.6894,,4,0,40,0,1,1,M,,2,,,,,,,
,,,,,,,,1,,2024-09-24_15h34.13.256,Motor_Task,2023.2.2,Win32,80.64516129,46.163,46.7722,3,1,0.6087,,4,1,41,1,1,2,R,,3,,,,,,,
,,,,,,,,1,,2024-09-24_15h34.13.256,Motor_Task,2023.2.2,Win32,80.64516129,46.7727,47.394,2,1,0.621,,4,2,42,2,1,3,M,,2,,,,,,,
,,,,,,,,1,,2024-09-24_15h34.13.256,Motor_Task,2023.2.2,Win32,80.64516129,47.3945,48.003,3,1,0.608,,4,3,43,3,1,4,R,,3,,,,,,,
,,,,,,,,1,,2024-09-24_15h34.13.256,Motor_Task,2023.2.2,Win32,80.64516129,48.0033,48.5556,1,1,0.552,,4,4,44,4,1,5,I,,1,,,,,,,
,,,,,,,,1,,2024-09-24_15h34.13.256,Motor_Task,2023.2.2,Win32,80.64516129,48.5559,49.2166,1,1,0.6603,,4,5,45,5,1,6,I,,1,,,,,,,
,,,,,,,,1,,2024-09-24_15h34.13.256,Motor_Task,2023.2.2,Win32,80.64516129,49.217,49.8319,3,1,0.6146,,4,6,46,6,1,7,R,,3,,,,,,,
,,,,,,,,1,,2024-09-24_15h34.13.256,Motor_Task,2023.2.2,Win32,80.64516129,49.8322,50.5582,2,1,0.7256,0.0001,4,7,47,7,1,8,M,,2,,,,,,,
,,,,,,,,1,,2024-09-24_15h34.13.256,Motor_Task,2023.2.2,Win32,80.64516129,50.5585,51.1629,4,1,0.6041,,4,8,48,8,1,9,L,,4,,,,,,,
,,,,,,,,1,,2024-09-24_15h34.13.256,Motor_Task,2023.2.2,Win32,80.64516129,51.1632,51.7027,1,1,0.5389,,4,9,49,9,1,10,I,,1,,,,,,,
,,,,,,,,1,,2024-09-24_15h34.13.256,Motor_Task,2023.2.2,Win32,80.64516129,51.703,52.3763,2,1,0.673,,5,0,50,0,1,1,M,,2,,,,,,,
,,,,,,,,1,,2024-09-24_15h34.13.256,Motor_Task,2023.2.2,Win32,80.64516129,52.3765,52.8277,3,1,0.4508,,5,1,51,1,1,2,R,,3,,,,,,,
,,,,,,,,1,,2024-09-24_15h34.13.256,Motor_Task,2023.2.2,Win32,80.64516129,52.828,53.2905,2,1,0.4623,,5,2,52,2,1,3,M,,2,,,,,,,
,,,,,,,,1,,2024-09-24_15h34.13.256,Motor_Task,2023.2.2,Win32,80.64516129,53.2909,54.0068,3,1,0.7156,,5,3,53,3,1,4,R,,3,,,,,,,
,,,,,,,,1,,2024-09-24_15h34.13.256,Motor_Task,2023.2.2,Win32,80.64516129,54.0072,54.9536,1,1,0.946,,5,4,54,4,1,5,I,,1,,,,,,,
,,,,,,,,1,,2024-09-24_15h34.13.256,Motor_Task,2023.2.2,Win32,80.64516129,54.9539,55.4306,1,1,0.4763,,5,5,55,5,1,6,I,,1,,,,,,,
,,,,,,,,1,,2024-09-24_15h34.13.256,Motor_Task,2023.2.2,Win32,80.64516129,55.431,56.4263,3,1,0.9951,,5,6,56,6,1,7,R,,3,,,,,,,
,,,,,,,,1,,2024-09-24_15h34.13.256,Motor_Task,2023.2.2,Win32,80.64516129,56.4267,57.0129,2,1,0.5855,,5,7,57,7,1,8,M,,2,,,,,,,
,,,,,,,,1,,2024-09-24_15h34.13.256,Motor_Task,2023.2.2,Win32,80.64516129,57.0132,57.6507,4,1,0.6372,,5,8,58,8,1,9,L,,4,,,,,,,
,,,,,,,,1,,2024-09-24_15h34.13.256,Motor_Task,2023.2.2,Win32,80.64516129,57.6512,58.2255,1,1,0.574,,5,9,59,9,1,10,I,,1,,,,,,,
,,,,,,,,1,,2024-09-24_15h34.13.256,Motor_Task,2023.2.2,Win32,80.64516129,58.2257,58.7488,2,1,0.5227,,6,0,60,0,1,1,M,,2,,,,,,,
,,,,,,,,1,,2024-09-24_15h34.13.256,Motor_Task,2023.2.2,Win32,80.64516129,58.7491,59.3755,3,1,0.626,,6,1,61,1,1,2,R,,3,,,,,,,
,,,,,,,,1,,2024-09-24_15h34.13.256,Motor_Task,2023.2.2,Win32,80.64516129,59.3759,60.0049,2,1,0.6286,,6,2,62,2,1,3,M,,2,,,,,,,
,,,,,,,,1,,2024-09-24_15h34.13.256,Motor_Task,2023.2.2,Win32,80.64516129,60.0052,60.5109,3,1,0.5054,,6,3,63,3,1,4,R,,3,,,,,,,
,,,,,,,,1,,2024-09-24_15h34.13.256,Motor_Task,2023.2.2,Win32,80.64516129,60.5112,61.0183,1,1,0.5066,,6,4,64,4,1,5,I,,1,,,,,,,
,,,,,,,,1,,2024-09-24_15h34.13.256,Motor_Task,2023.2.2,Win32,80.64516129,61.0186,61.551,1,1,0.532,,6,5,65,5,1,6,I,,1,,,,,,,
,,,,,,,,1,,2024-09-24_15h34.13.256,Motor_Task,2023.2.2,Win32,80.64516129,61.5513,62.2097,3,1,0.658,,6,6,66,6,1,7,R,,3,,,,,,,
,,,,,,,,1,,2024-09-24_15h34.13.256,Motor_Task,2023.2.2,Win32,80.64516129,62.21,62.6909,2,1,0.4804,,6,7,67,7,1,8,M,,2,,,,,,,
,,,,,,,,1,,2024-09-24_15h34.13.256,Motor_Task,2023.2.2,Win32,80.64516129,62.6912,63.1286,4,1,0.437,,6,8,68,8,1,9,L,,4,,,,,,,
,,,,,,,,1,,2024-09-24_15h34.13.256,Motor_Task,2023.2.2,Win32,80.64516129,63.1288,63.7524,1,1,0.6228,,6,9,69,9,1,10,I,,1,,,,,,,
,,,,,,,,1,,2024-09-24_15h34.13.256,Motor_Task,2023.2.2,Win32,80.64516129,63.7527,64.2983,2,1,0.5451,,7,0,70,0,1,1,M,,2,,,,,,,
,,,,,,,,1,,2024-09-24_15h34.13.256,Motor_Task,2023.2.2,Win32,80.64516129,64.2985,64.8255,3,1,0.5266,,7,1,71,1,1,2,R,,3,,,,,,,
,,,,,,,,1,,2024-09-24_15h34.13.256,Motor_Task,2023.2.2,Win32,80.64516129,64.8258,65.43,2,1,0.6039,,7,2,72,2,1,3,M,,2,,,,,,,
,,,,,,,,1,,2024-09-24_15h34.13.256,Motor_Task,2023.2.2,Win32,80.64516129,65.4303,65.9923,3,1,0.5618,,7,3,73,3,1,4,R,,3,,,,,,,
,,,,,,,,1,,2024-09-24_15h34.13.256,Motor_Task,2023.2.2,Win32,80.64516129,65.9927,66.6469,1,1,0.654,,7,4,74,4,1,5,I,,1,,,,,,,
,,,,,,,,1,,2024-09-24_15h34.13.256,Motor_Task,2023.2.2,Win32,80.64516129,66.6473,67.1849,1,1,0.5371,,7,5,75,5,1,6,I,,1,,,,,,,
,,,,,,,,1,,2024-09-24_15h34.13.256,Motor_Task,2023.2.2,Win32,80.64516129,67.1852,68.1571,3,1,0.9716,9.99999E-05,7,6,76,6,1,7,R,,3,,,,,,,
,,,,,,,,1,,2024-09-24_15h34.13.256,Motor_Task,2023.2.2,Win32,80.64516129,68.1574,68.6278,2,1,0.4701,,7,7,77,7,1,8,M,,2,,,,,,,
,,,,,,,,1,,2024-09-24_15h34.13.256,Motor_Task,2023.2.2,Win32,80.64516129,68.6282,69.2326,4,1,0.604,,7,8,78,8,1,9,L,,4,,,,,,,
,,,,,,,,1,,2024-09-24_15h34.13.256,Motor_Task,2023.2.2,Win32,80.64516129,69.2328,69.8443,1,1,0.6111,,7,9,79,9,1,10,I,,1,,,,,,,
,,,,,,,,1,,2024-09-24_15h34.13.256,Motor_Task,2023.2.2,Win32,80.64516129,69.8446,70.5402,2,1,0.6953,,8,0,80,0,1,1,M,,2,,,,,,,
,,,,,,,,1,,2024-09-24_15h34.13.256,Motor_Task,2023.2.2,Win32,80.64516129,70.5406,71.0761,3,1,0.5352,,8,1,81,1,1,2,R,,3,,,,,,,
,,,,,,,,1,,2024-09-24_15h34.13.256,Motor_Task,2023.2.2,Win32,80.64516129,71.0763,71.6018,2,1,0.5251,,8,2,82,2,1,3,M,,2,,,,,,,
,,,,,,,,1,,2024-09-24_15h34.13.256,Motor_Task,2023.2.2,Win32,80.64516129,71.6022,72.5686,3,1,0.9662,,8,3,83,3,1,4,R,,3,,,,,,,
,,,,,,,,1,,2024-09-24_15h34.13.256,Motor_Task,2023.2.2,Win32,80.64516129,72.569,73.0469,1,1,0.4771,,8,4,84,4,1,5,I,,1,,,,,,,
,,,,,,,,1,,2024-09-24_15h34.13.256,Motor_Task,2023.2.2,Win32,80.64516129,73.0472,73.5177,1,1,0.4689,,8,5,85,5,1,6,I,,1,,,,,,,
,,,,,,,,1,,2024-09-24_15h34.13.256,Motor_Task,2023.2.2,Win32,80.64516129,73.518,74.1325,3,1,0.6141,,8,6,86,6,1,7,R,,3,,,,,,,
,,,,,,,,1,,2024-09-24_15h34.13.256,Motor_Task,2023.2.2,Win32,80.64516129,74.1326,74.6576,2,1,0.5246,,8,7,87,7,1,8,M,,2,,,,,,,
,,,,,,,,1,,2024-09-24_15h34.13.256,Motor_Task,2023.2.2,Win32,80.64516129,74.6579,75.2242,4,1,0.5659,,8,8,88,8,1,9,L,,4,,,,,,,
,,,,,,,,1,,2024-09-24_15h34.13.256,Motor_Task,2023.2.2,Win32,80.64516129,75.2245,75.809,1,1,0.5842,,8,9,89,9,1,10,I,,1,,,,,,,
,,,,,,,,1,,2024-09-24_15h34.13.256,Motor_Task,2023.2.2,Win32,80.64516129,75.8093,76.3803,2,1,0.5707,,9,0,90,0,1,1,M,,2,,,,,,,
,,,,,,,,1,,2024-09-24_15h34.13.256,Motor_Task,2023.2.2,Win32,80.64516129,76.3807,76.9727,3,1,0.5918,,9,1,91,1,1,2,R,,3,,,,,,,
,,,,,,,,1,,2024-09-24_15h34.13.256,Motor_Task,2023.2.2,Win32,80.64516129,76.973,77.4375,2,1,0.4641,,9,2,92,2,1,3,M,,2,,,,,,,
,,,,,,,,1,,2024-09-24_15h34.13.256,Motor_Task,2023.2.2,Win32,80.64516129,77.4379,78.0427,3,1,0.6046,,9,3,93,3,1,4,R,,3,,,,,,,
,,,,,,,,1,,2024-09-24_15h34.13.256,Motor_Task,2023.2.2,Win32,80.64516129,78.043,78.6618,1,1,0.6184,,9,4,94,4,1,5,I,,1,,,,,,,
,,,,,,,,1,,2024-09-24_15h34.13.256,Motor_Task,2023.2.2,Win32,80.64516129,78.6622,79.1937,1,1,0.5313,,9,5,95,5,1,6,I,,1,,,,,,,
,,,,,,,,1,,2024-09-24_15h34.13.256,Motor_Task,2023.2.2,Win32,80.64516129,79.194,79.7656,3,1,0.5713,,9,6,96,6,1,7,R,,3,,,,,,,
,,,,,,,,1,,2024-09-24_15h34.13.256,Motor_Task,2023.2.2,Win32,80.64516129,79.7659,80.2504,2,1,0.4841,,9,7,97,7,1,8,M,,2,,,,,,,
,,,,,,,,1,,2024-09-24_15h34.13.256,Motor_Task,2023.2.2,Win32,80.64516129,80.2507,80.8823,4,1,0.6313,,9,8,98,8,1,9,L,,4,,,,,,,
,,,,,,,,1,,2024-09-24_15h34.13.256,Motor_Task,2023.2.2,Win32,80.64516129,80.8826,81.4898,1,1,0.6067,,9,9,99,9,1,10,I,,1,,,,,,,
,,,,,,,,1,,2024-09-24_15h34.13.256,Motor_Task,2023.2.2,Win32,80.64516129,81.4901,82.1056,2,1,0.6153,,10,0,100,0,1,1,M,,2,,,,,,,
,,,,,,,,1,,2024-09-24_15h34.13.256,Motor_Task,2023.2.2,Win32,80.64516129,82.1059,82.6292,3,1,0.5229,,10,1,101,1,1,2,R,,3,,,,,,,
,,,,,,,,1,,2024-09-24_15h34.13.256,Motor_Task,2023.2.2,Win32,80.64516129,82.6294,83.2588,2,1,0.629,,10,2,102,2,1,3,M,,2,,,,,,,
,,,,,,,,1,,2024-09-24_15h34.13.256,Motor_Task,2023.2.2,Win32,80.64516129,83.259,83.7827,3,1,0.523,,10,3,103,3,1,4,R,,3,,,,,,,
,,,,,,,,1,,2024-09-24_15h34.13.256,Motor_Task,2023.2.2,Win32,80.64516129,83.7829,84.3918,1,1,0.6085,,10,4,104,4,1,5,I,,1,,,,,,,
,,,,,,,,1,,2024-09-24_15h34.13.256,Motor_Task,2023.2.2,Win32,80.64516129,84.392,84.8956,1,1,0.5024,,10,5,105,5,1,6,I,,1,,,,,,,
,,,,,,,,1,,2024-09-24_15h34.13.256,Motor_Task,2023.2.2,Win32,80.64516129,84.8958,85.7677,3,1,0.8716,,10,6,106,6,1,7,R,,3,,,,,,,
,,,,,,,,1,,2024-09-24_15h34.13.256,Motor_Task,2023.2.2,Win32,80.64516129,85.7679,86.2301,2,1,0.4617,,10,7,107,7,1,8,M,,2,,,,,,,
,,,,,,,,1,,2024-09-24_15h34.13.256,Motor_Task,2023.2.2,Win32,80.64516129,86.2304,86.8303,4,1,0.5996,,10,8,108,8,1,9,L,,4,,,,,,,
,,,,,,,,1,,2024-09-24_15h34.13.256,Motor_Task,2023.2.2,Win32,80.64516129,86.8307,87.4841,1,1,0.653,,10,9,109,9,1,10,I,,1,,,,,,,
,,,,,,,,1,,2024-09-24_15h34.13.256,Motor_Task,2023.2.2,Win32,80.64516129,87.4844,88.1096,2,1,0.625,,11,0,110,0,1,1,M,,2,,,,,,,
,,,,,,,,1,,2024-09-24_15h34.13.256,Motor_Task,2023.2.2,Win32,80.64516129,88.1099,88.6372,3,1,0.5266,,11,1,111,1,1,2,R,,3,,,,,,,
,,,,,,,,1,,2024-09-24_15h34.13.256,Motor_Task,2023.2.2,Win32,80.64516129,88.6375,89.1497,2,1,0.512,,11,2,112,2,1,3,M,,2,,,,,,,
,,,,,,,,1,,2024-09-24_15h34.13.256,Motor_Task,2023.2.2,Win32,80.64516129,89.15,89.6909,3,1,0.5386,,11,3,113,3,1,4,R,,3,,,,,,,
,,,,,,,,1,,2024-09-24_15h34.13.256,Motor_Task,2023.2.2,Win32,80.64516129,89.6911,90.2705,1,1,0.5791,,11,4,114,4,1,5,I,,1,,,,,,,
,,,,,,,,1,,2024-09-24_15h34.13.256,Motor_Task,2023.2.2,Win32,80.64516129,90.2708,90.7663,1,1,0.4952,,11,5,115,5,1,6,I,,1,,,,,,,
,,,,,,,,1,,2024-09-24_15h34.13.256,Motor_Task,2023.2.2,Win32,80.64516129,90.7665,91.4139,3,1,0.6471,,11,6,116,6,1,7,R,,3,,,,,,,
,,,,,,,,1,,2024-09-24_15h34.13.256,Motor_Task,2023.2.2,Win32,80.64516129,91.4143,91.9124,2,1,0.498,,11,7,117,7,1,8,M,,2,,,,,,,
,,,,,,,,1,,2024-09-24_15h34.13.256,Motor_Task,2023.2.2,Win32,80.64516129,91.9127,92.7824,4,1,0.8692,,11,8,118,8,1,9,L,,4,,,,,,,
,,,,,,,,1,,2024-09-24_15h34.13.256,Motor_Task,2023.2.2,Win32,80.64516129,92.7826,93.3626,1,1,0.5797,,11,9,119,9,1,10,I,,1,,,,,,,
,,,,,,,,1,,2024-09-24_15h34.13.256,Motor_Task,2023.2.2,Win32,80.64516129,93.363,93.9809,2,1,0.6172,,12,0,120,0,1,1,M,,2,,,,,,,
,,,,,,,,1,,2024-09-24_15h34.13.256,Motor_Task,2023.2.2,Win32,80.64516129,93.9815,94.5946,3,1,0.6127,,12,1,121,1,1,2,R,,3,,,,,,,
,,,,,,,,1,,2024-09-24_15h34.13.256,Motor_Task,2023.2.2,Win32,80.64516129,94.5949,95.1947,2,1,0.5995,,12,2,122,2,1,3,M,,2,,,,,,,
,,,,,,,,1,,2024-09-24_15h34.13.256,Motor_Task,2023.2.2,Win32,80.64516129,95.195,95.7802,3,1,0.585,,12,3,123,3,1,4,R,,3,,,,,,,
,,,,,,,,1,,2024-09-24_15h34.13.256,Motor_Task,2023.2.2,Win32,80.64516129,95.7804,96.2796,1,1,0.4988,,12,4,124,4,1,5,I,,1,,,,,,,
,,,,,,,,1,,2024-09-24_15h34.13.256,Motor_Task,2023.2.2,Win32,80.64516129,96.2799,96.7552,1,1,0.4749,,12,5,125,5,1,6,I,,1,,,,,,,
,,,,,,,,1,,2024-09-24_15h34.13.256,Motor_Task,2023.2.2,Win32,80.64516129,96.7556,97.2861,3,1,0.5303,,12,6,126,6,1,7,R,,3,,,,,,,
,,,,,,,,1,,2024-09-24_15h34.13.256,Motor_Task,2023.2.2,Win32,80.64516129,97.2866,97.7775,2,1,0.4907,,12,7,127,7,1,8,M,,2,,,,,,,
,,,,,,,,1,,2024-09-24_15h34.13.256,Motor_Task,2023.2.2,Win32,80.64516129,97.7778,98.2617,4,1,0.4837,,12,8,128,8,1,9,L,,4,,,,,,,
,,,,,,,,1,,2024-09-24_15h34.13.256,Motor_Task,2023.2.2,Win32,80.64516129,98.2619,98.9906,1,1,0.7284,,12,9,129,9,1,10,I,,1,,,,,,,
,,,,,,,,1,,2024-09-24_15h34.13.256,Motor_Task,2023.2.2,Win32,80.64516129,98.9908,99.5763,2,1,0.5849,,13,0,130,0,1,1,M,,2,,,,,,,
,,,,,,,,1,,2024-09-24_15h34.13.256,Motor_Task,2023.2.2,Win32,80.64516129,99.5765,100.0654,3,1,0.4885,,13,1,131,1,1,2,R,,3,,,,,,,
,,,,,,,,1,,2024-09-24_15h34.13.256,Motor_Task,2023.2.2,Win32,80.64516129,100.0657,100.7056,2,1,0.6396,,13,2,132,2,1,3,M,,2,,,,,,,
,,,,,,,,1,,2024-09-24_15h34.13.256,Motor_Task,2023.2.2,Win32,80.64516129,100.7059,101.2238,3,1,0.5176,,13,3,133,3,1,4,R,,3,,,,,,,
,,,,,,,,1,,2024-09-24_15h34.13.256,Motor_Task,2023.2.2,Win32,80.64516129,101.2241,101.8473,1,1,0.6229,,13,4,134,4,1,5,I,,1,,,,,,,
,,,,,,,,1,,2024-09-24_15h34.13.256,Motor_Task,2023.2.2,Win32,80.64516129,101.8475,102.3309,1,1,0.483,,13,5,135,5,1,6,I,,1,,,,,,,
,,,,,,,,1,,2024-09-24_15h34.13.256,Motor_Task,2023.2.2,Win32,80.64516129,102.3312,102.8615,3,1,0.5301,,13,6,136,6,1,7,R,,3,,,,,,,
,,,,,,,,1,,2024-09-24_15h34.13.256,Motor_Task,2023.2.2,Win32,80.64516129,102.8618,103.3778,2,1,0.5159,,13,7,137,7,1,8,M,,2,,,,,,,
,,,,,,,,1,,2024-09-24_15h34.13.256,Motor_Task,2023.2.2,Win32,80.64516129,103.3781,104.0036,4,1,0.625,,13,8,138,8,1,9,L,,4,,,,,,,
,,,,,,,,1,,2024-09-24_15h34.13.256,Motor_Task,2023.2.2,Win32,80.64516129,104.0039,104.7059,1,1,0.7018,,13,9,139,9,1,10,I,,1,,,,,,,
,,,,,,,,1,,2024-09-24_15h34.13.256,Motor_Task,2023.2.2,Win32,80.64516129,104.7062,105.2891,2,1,0.5828,,14,0,140,0,1,1,M,,2,,,,,,,
,,,,,,,,1,,2024-09-24_15h34.13.256,Motor_Task,2023.2.2,Win32,80.64516129,105.2895,105.7511,3,1,0.4604,,14,1,141,1,1,2,R,,3,,,,,,,
,,,,,,,,1,,2024-09-24_15h34.13.256,Motor_Task,2023.2.2,Win32,80.64516129,105.7515,106.2045,2,1,0.4524,,14,2,142,2,1,3,M,,2,,,,,,,
,,,,,,,,1,,2024-09-24_15h34.13.256,Motor_Task,2023.2.2,Win32,80.64516129,106.2047,106.818,3,1,0.6131,,14,3,143,3,1,4,R,,3,,,,,,,
,,,,,,,,1,,2024-09-24_15h34.13.256,Motor_Task,2023.2.2,Win32,80.64516129,106.8182,107.7399,1,1,0.9215,0,14,4,144,4,1,5,I,,1,,,,,,,
,,,,,,,,1,,2024-09-24_15h34.13.256,Motor_Task,2023.2.2,Win32,80.64516129,107.7403,108.033,1,1,0.2923,,14,5,145,5,1,6,I,,1,,,,,,,
,,,,,,,,1,,2024-09-24_15h34.13.256,Motor_Task,2023.2.2,Win32,80.64516129,108.0332,108.6945,3,1,0.661,,14,6,146,6,1,7,R,,3,,,,,,,
,,,,,,,,1,,2024-09-24_15h34.13.256,Motor_Task,2023.2.2,Win32,80.64516129,108.6948,109.1532,2,1,0.4582,,14,7,147,7,1,8,M,,2,,,,,,,
,,,,,,,,1,,2024-09-24_15h34.13.256,Motor_Task,2023.2.2,Win32,80.64516129,109.1536,109.6468,4,1,0.493,,14,8,148,8,1,9,L,,4,,,,,,,
,,,,,,,,1,,2024-09-24_15h34.13.256,Motor_Task,2023.2.2,Win32,80.64516129,109.6471,110.1839,1,1,0.5366,,14,9,149,9,1,10,I,,1,,,,,,,
,,,,,,,,1,,2024-09-24_15h34.13.256,Motor_Task,2023.2.2,Win32,80.64516129,110.1842,110.6937,2,1,0.5093,,15,0,150,0,1,1,M,,2,,,,,,,
,,,,,,,,1,,2024-09-24_15h34.13.256,Motor_Task,2023.2.2,Win32,80.64516129,110.694,111.1311,3,1,0.4369,,15,1,151,1,1,2,R,,3,,,,,,,
,,,,,,,,1,,2024-09-24_15h34.13.256,Motor_Task,2023.2.2,Win32,80.64516129,111.1315,111.5807,2,1,0.4487,,15,2,152,2,1,3,M,,2,,,,,,,
,,,,,,,,1,,2024-09-24_15h34.13.256,Motor_Task,2023.2.2,Win32,80.64516129,111.5811,112.1524,3,1,0.5711,,15,3,153,3,1,4,R,,3,,,,,,,
,,,,,,,,1,,2024-09-24_15h34.13.256,Motor_Task,2023.2.2,Win32,80.64516129,112.1528,112.6764,1,1,0.5233,,15,4,154,4,1,5,I,,1,,,,,,,
,,,,,,,,1,,2024-09-24_15h34.13.256,Motor_Task,2023.2.2,Win32,80.64516129,112.6768,113.1366,1,1,0.4593,,15,5,155,5,1,6,I,,1,,,,,,,
,,,,,,,,1,,2024-09-24_15h34.13.256,Motor_Task,2023.2.2,Win32,80.64516129,113.1369,113.5807,3,1,0.4435,,15,6,156,6,1,7,R,,3,,,,,,,
,,,,,,,,1,,2024-09-24_15h34.13.256,Motor_Task,2023.2.2,Win32,80.64516129,113.5809,113.9833,2,1,0.402,,15,7,157,7,1,8,M,,2,,,,,,,
,,,,,,,,1,,2024-09-24_15h34.13.256,Motor_Task,2023.2.2,Win32,80.64516129,113.9835,114.583,4,1,0.5985,,15,8,158,8,1,9,L,,4,,,,,,,
,,,,,,,,1,,2024-09-24_15h34.13.256,Motor_Task,2023.2.2,Win32,80.64516129,114.5833,115.1435,1,1,0.56,,15,9,159,9,1,10,I,,1,,,,,,,
,,,,,,,,1,,2024-09-24_15h34.13.256,Motor_Task,2023.2.2,Win32,80.64516129,115.1439,115.6333,2,1,0.4892,,16,0,160,0,1,1,M,,2,,,,,,,
,,,,,,,,1,,2024-09-24_15h34.13.256,Motor_Task,2023.2.2,Win32,80.64516129,115.6336,116.0552,3,1,0.4214,,16,1,161,1,1,2,R,,3,,,,,,,
,,,,,,,,1,,2024-09-24_15h34.13.256,Motor_Task,2023.2.2,Win32,80.64516129,116.0554,116.5204,2,1,0.4646,,16,2,162,2,1,3,M,,2,,,,,,,
,,,,,,,,1,,2024-09-24_15h34.13.256,Motor_Task,2023.2.2,Win32,80.64516129,116.5206,117.0164,3,1,0.4954,,16,3,163,3,1,4,R,,3,,,,,,,
,,,,,,,,1,,2024-09-24_15h34.13.256,Motor_Task,2023.2.2,Win32,80.64516129,117.0165,117.5498,1,1,0.533,,16,4,164,4,1,5,I,,1,,,,,,,
,,,,,,,,1,,2024-09-24_15h34.13.256,Motor_Task,2023.2.2,Win32,80.64516129,117.5501,118.0648,1,1,0.5144,,16,5,165,5,1,6,I,,1,,,,,,,
,,,,,,,,1,,2024-09-24_15h34.13.256,Motor_Task,2023.2.2,Win32,80.64516129,118.065,118.6939,3,1,0.6285,,16,6,166,6,1,7,R,,3,,,,,,,
,,,,,,,,1,,2024-09-24_15h34.13.256,Motor_Task,2023.2.2,Win32,80.64516129,118.6941,119.1017,2,1,0.4074,,16,7,167,7,1,8,M,,2,,,,,,,
,,,,,,,,1,,2024-09-24_15h34.13.256,Motor_Task,2023.2.2,Win32,80.64516129,119.1021,119.5781,4,1,0.4757,,16,8,168,8,1,9,L,,4,,,,,,,
,,,,,,,,1,,2024-09-24_15h34.13.256,Motor_Task,2023.2.2,Win32,80.64516129,119.5783,120.0352,1,1,0.4567,,16,9,169,9,1,10,I,,1,,,,,,,
,,,,,,,,1,,2024-09-24_15h34.13.256,Motor_Task,2023.2.2,Win32,80.64516129,120.0356,120.9202,2,1,0.884,0.0001,17,0,170,0,1,1,M,,2,,,,,,,
,,,,,,,,1,,2024-09-24_15h34.13.256,Motor_Task,2023.2.2,Win32,80.64516129,120.9205,121.1182,3,1,0.1973,,17,1,171,1,1,2,R,,3,,,,,,,
,,,,,,,,1,,2024-09-24_15h34.13.256,Motor_Task,2023.2.2,Win32,80.64516129,121.1185,121.891,2,1,0.7721,,17,2,172,2,1,3,M,,2,,,,,,,
,,,,,,,,1,,2024-09-24_15h34.13.256,Motor_Task,2023.2.2,Win32,80.64516129,121.8913,122.4805,3,1,0.5889,,17,3,173,3,1,4,R,,3,,,,,,,
,,,,,,,,1,,2024-09-24_15h34.13.256,Motor_Task,2023.2.2,Win32,80.64516129,122.4809,123.1323,1,1,0.6511,,17,4,174,4,1,5,I,,1,,,,,,,
,,,,,,,,1,,2024-09-24_15h34.13.256,Motor_Task,2023.2.2,Win32,80.64516129,123.1326,123.7787,1,1,0.6458,,17,5,175,5,1,6,I,,1,,,,,,,
,,,,,,,,1,,2024-09-24_15h34.13.256,Motor_Task,2023.2.2,Win32,80.64516129,123.7789,124.4883,3,1,0.7091,,17,6,176,6,1,7,R,,3,,,,,,,
,,,,,,,,1,,2024-09-24_15h34.13.256,Motor_Task,2023.2.2,Win32,80.64516129,124.4885,125.3314,2,1,0.8424,,17,7,177,7,1,8,M,,2,,,,,,,
,,,,,,,,1,,2024-09-24_15h34.13.256,Motor_Task,2023.2.2,Win32,80.64516129,125.3318,125.8397,4,1,0.5077,,17,8,178,8,1,9,L,,4,,,,,,,
,,,,,,,,1,,2024-09-24_15h34.13.256,Motor_Task,2023.2.2,Win32,80.64516129,125.8399,126.4608,1,1,0.6207,,17,9,179,9,1,10,I,,1,,,,,,,
,,,,,,,,1,,2024-09-24_15h34.13.256,Motor_Task,2023.2.2,Win32,80.64516129,126.4611,126.9414,1,0,0.48,,18,0,180,0,1,1,M,,2,,,,,,,
,,,,,,,,1,,2024-09-24_15h34.13.256,Motor_Task,2023.2.2,Win32,80.64516129,126.9417,127.7642,3,1,0.8222,,18,1,181,1,1,2,R,,3,,,,,,,
,,,,,,,,1,,2024-09-24_15h34.13.256,Motor_Task,2023.2.2,Win32,80.64516129,127.7644,128.4189,2,1,0.6542,,18,2,182,2,1,3,M,,2,,,,,,,
,,,,,,,,1,,2024-09-24_15h34.13.256,Motor_Task,2023.2.2,Win32,80.64516129,128.4192,129.0836,3,1,0.664,,18,3,183,3,1,4,R,,3,,,,,,,
,,,,,,,,1,,2024-09-24_15h34.13.256,Motor_Task,2023.2.2,Win32,80.64516129,129.0838,129.7244,1,1,0.6404,,18,4,184,4,1,5,I,,1,,,,,,,
,,,,,,,,1,,2024-09-24_15h34.13.256,Motor_Task,2023.2.2,Win32,80.64516129,129.7248,130.2908,1,1,0.5656,,18,5,185,5,1,6,I,,1,,,,,,,
,,,,,,,,1,,2024-09-24_15h34.13.256,Motor_Task,2023.2.2,Win32,80.64516129,130.291,130.9235,3,1,0.6321,,18,6,186,6,1,7,R,,3,,,,,,,
,,,,,,,,1,,2024-09-24_15h34.13.256,Motor_Task,2023.2.2,Win32,80.64516129,130.9238,131.4103,2,1,0.4863,,18,7,187,7,1,8,M,,2,,,,,,,
,,,,,,,,1,,2024-09-24_15h34.13.256,Motor_Task,2023.2.2,Win32,80.64516129,131.4106,131.9601,4,1,0.5493,,18,8,188,8,1,9,L,,4,,,,,,,
,,,,,,,,1,,2024-09-24_15h34.13.256,Motor_Task,2023.2.2,Win32,80.64516129,131.9604,132.5642,1,1,0.6036,,18,9,189,9,1,10,I,,1,,,,,,,
,,,,,,,,1,,2024-09-24_15h34.13.256,Motor_Task,2023.2.2,Win32,80.64516129,132.5644,133.1157,2,1,0.5511,,19,0,190,0,1,1,M,,2,,,,,,,
,,,,,,,,1,,2024-09-24_15h34.13.256,Motor_Task,2023.2.2,Win32,80.64516129,133.116,133.6432,3,1,0.527,,19,1,191,1,1,2,R,,3,,,,,,,
,,,,,,,,1,,2024-09-24_15h34.13.256,Motor_Task,2023.2.2,Win32,80.64516129,133.6435,134.1426,2,1,0.4988,,19,2,192,2,1,3,M,,2,,,,,,,
,,,,,,,,1,,2024-09-24_15h34.13.256,Motor_Task,2023.2.2,Win32,80.64516129,134.1428,134.7333,3,1,0.5903,,19,3,193,3,1,4,R,,3,,,,,,,
,,,,,,,,1,,2024-09-24_15h34.13.256,Motor_Task,2023.2.2,Win32,80.64516129,134.7336,135.2965,1,1,0.5625,,19,4,194,4,1,5,I,,1,,,,,,,
,,,,,,,,1,,2024-09-24_15h34.13.256,Motor_Task,2023.2.2,Win32,80.64516129,135.2968,135.739,1,1,0.4418,,19,5,195,5,1,6,I,,1,,,,,,,
,,,,,,,,1,,2024-09-24_15h34.13.256,Motor_Task,2023.2.2,Win32,80.64516129,135.7393,136.2096,3,1,0.47,,19,6,196,6,1,7,R,,3,,,,,,,
,,,,,,,,1,,2024-09-24_15h34.13.256,Motor_Task,2023.2.2,Win32,80.64516129,136.2101,136.6136,2,1,0.4033,,19,7,197,7,1,8,M,,2,,,,,,,
,,,,,,,,1,,2024-09-24_15h34.13.256,Motor_Task,2023.2.2,Win32,80.64516129,136.6139,137.2467,4,1,0.6322,,19,8,198,8,1,9,L,,4,,,,,,,
,,,,,,,,1,,2024-09-24_15h34.13.256,Motor_Task,2023.2.2,Win32,80.64516129,137.2471,137.7507,1,1,0.5034,,19,9,199,9,1,10,I,,1,,,,,,,
,,,,,,,,1,,2024-09-24_15h34.13.256,Motor_Task,2023.2.2,Win32,80.64516129,137.7579,138.5108,2,1,0.7527,,,,,,,1,M,,2,0,0,0,0,1,,
,,,,,,,,1,,2024-09-24_15h34.13.256,Motor_Task,2023.2.2,Win32,80.64516129,138.5113,138.9394,3,1,0.4277,,,,,,,7,R,,3,0,1,1,6,1,,
,,,,,,,,1,,2024-09-24_15h34.13.256,Motor_Task,2023.2.2,Win32,80.64516129,138.9397,139.5551,1,1,0.6151,,,,,,,5,I,,1,0,2,2,4,1,,
,,,,,,,,1,,2024-09-24_15h34.13.256,Motor_Task,2023.2.2,Win32,80.64516129,139.5554,140.0646,1,1,0.509,,,,,,,6,I,,1,0,3,3,5,1,,
,,,,,,,,1,,2024-09-24_15h34.13.256,Motor_Task,2023.2.2,Win32,80.64516129,140.0648,140.6325,1,1,0.5673,,,,,,,10,I,,1,0,4,4,9,1,,
,,,,,,,,1,,2024-09-24_15h34.13.256,Motor_Task,2023.2.2,Win32,80.64516129,140.6328,141.3009,2,1,0.6667,,,,,,,8,M,,2,0,5,5,7,1,,
,,,,,,,,1,,2024-09-24_15h34.13.256,Motor_Task,2023.2.2,Win32,80.64516129,141.3011,142.1881,2,1,0.8867,,,,,,,3,M,,2,0,6,6,2,1,,
,,,,,,,,1,,2024-09-24_15h34.13.256,Motor_Task,2023.2.2,Win32,80.64516129,142.1884,142.9238,3,1,0.735,,,,,,,2,R,,3,0,7,7,1,1,,
,,,,,,,,1,,2024-09-24_15h34.13.256,Motor_Task,2023.2.2,Win32,80.64516129,142.9241,143.6758,4,1,0.7511,,,,,,,9,L,,4,0,8,8,8,1,,
,,,,,,,,1,,2024-09-24_15h34.13.256,Motor_Task,2023.2.2,Win32,80.64516129,143.6761,144.3831,3,1,0.7067,,,,,,,4,R,,3,0,9,9,3,1,,
,,,,,,,,1,,2024-09-24_15h34.13.256,Motor_Task,2023.2.2,Win32,80.64516129,144.3834,145.1088,2,1,0.725,,,,,,,8,M,,2,1,0,10,7,1,,
,,,,,,,,1,,2024-09-24_15h34.13.256,Motor_Task,2023.2.2,Win32,80.64516129,145.1091,145.8298,3,1,0.7204,,,,,,,7,R,,3,1,1,11,6,1,,
,,,,,,,,1,,2024-09-24_15h34.13.256,Motor_Task,2023.2.2,Win32,80.64516129,145.8301,146.3973,2,1,0.5669,,,,,,,3,M,,2,1,2,12,2,1,,
,,,,,,,,1,,2024-09-24_15h34.13.256,Motor_Task,2023.2.2,Win32,80.64516129,146.3977,147.2993,3,1,0.9013,,,,,,,4,R,,3,1,3,13,3,1,,
,,,,,,,,1,,2024-09-24_15h34.13.256,Motor_Task,2023.2.2,Win32,80.64516129,147.2996,147.8421,2,1,0.5423,,,,,,,1,M,,2,1,4,14,0,1,,
,,,,,,,,1,,2024-09-24_15h34.13.256,Motor_Task,2023.2.2,Win32,80.64516129,147.8424,148.4554,1,1,0.6128,,,,,,,6,I,,1,1,5,15,5,1,,
,,,,,,,,1,,2024-09-24_15h34.13.256,Motor_Task,2023.2.2,Win32,80.64516129,148.4558,148.9606,1,1,0.5045,,,,,,,5,I,,1,1,6,16,4,1,,
,,,,,,,,1,,2024-09-24_15h34.13.256,Motor_Task,2023.2.2,Win32,80.64516129,148.9609,149.6656,1,1,0.7043,,,,,,,10,I,,1,1,7,17,9,1,,
,,,,,,,,1,,2024-09-24_15h34.13.256,Motor_Task,2023.2.2,Win32,80.64516129,149.6659,150.5247,4,1,0.8578,,,,,,,9,L,,4,1,8,18,8,1,,
,,,,,,,,1,,2024-09-24_15h34.13.256,Motor_Task,2023.2.2,Win32,80.64516129,150.525,151.2488,3,1,0.7234,,,,,,,2,R,,3,1,9,19,1,1,,
,,,,,,,,1,,2024-09-24_15h34.13.256,Motor_Task,2023.2.2,Win32,80.64516129,151.2492,151.836,1,1,0.5862,,,,,,,5,I,,1,2,0,20,4,1,,
,,,,,,,,1,,2024-09-24_15h34.13.256,Motor_Task,2023.2.2,Win32,80.64516129,151.8362,152.2948,2,1,0.4583,,,,,,,3,M,,2,2,1,21,2,1,,
,,,,,,,,1,,2024-09-24_15h34.13.256,Motor_Task,2023.2.2,Win32,80.64516129,152.295,152.9464,1,1,0.651,,,,,,,10,I,,1,2,2,22,9,1,,
,,,,,,,,1,,2024-09-24_15h34.13.256,Motor_Task,2023.2.2,Win32,80.64516129,152.9467,153.5134,3,1,0.5663,,,,,,,2,R,,3,2,3,23,1,1,,
,,,,,,,,1,,2024-09-24_15h34.13.256,Motor_Task,2023.2.2,Win32,80.64516129,153.5138,153.9511,2,1,0.437,,,,,,,8,M,,2,2,4,24,7,1,,
,,,,,,,,1,,2024-09-24_15h34.13.256,Motor_Task,2023.2.2,Win32,80.64516129,153.9515,154.6039,3,1,0.6521,,,,,,,7,R,,3,2,5,25,6,1,,
,,,,,,,,1,,2024-09-24_15h34.13.256,Motor_Task,2023.2.2,Win32,80.64516129,154.6043,155.1527,2,1,0.5478,,,,,,,1,M,,2,2,6,26,0,1,,
,,,,,,,,1,,2024-09-24_15h34.13.256,Motor_Task,2023.2.2,Win32,80.64516129,155.153,155.6995,1,1,0.5463,,,,,,,6,I,,1,2,7,27,5,1,,
,,,,,,,,1,,2024-09-24_15h34.13.256,Motor_Task,2023.2.2,Win32,80.64516129,155.6999,156.339,3,1,0.6387,,,,,,,4,R,,3,2,8,28,3,1,,
,,,,,,,,1,,2024-09-24_15h34.13.256,Motor_Task,2023.2.2,Win32,80.64516129,156.3393,156.9595,4,1,0.6199,,,,,,,9,L,,4,2,9,29,8,1,,
,,,,,,,,1,,2024-09-24_15h34.13.256,Motor_Task,2023.2.2,Win32,80.64516129,156.9599,157.5539,4,0,0.5935,,,,,,,7,R,,3,3,0,30,6,1,,
,,,,,,,,1,,2024-09-24_15h34.13.256,Motor_Task,2023.2.2,Win32,80.64516129,157.5541,158.256,1,1,0.7015,,,,,,,6,I,,1,3,1,31,5,1,,
,,,,,,,,1,,2024-09-24_15h34.13.256,Motor_Task,2023.2.2,Win32,80.64516129,158.2564,159.0409,1,1,0.7841,,,,,,,10,I,,1,3,2,32,9,1,,
,,,,,,,,1,,2024-09-24_15h34.13.256,Motor_Task,2023.2.2,Win32,80.64516129,159.0413,159.6909,2,1,0.6493,,,,,,,3,M,,2,3,3,33,2,1,,
,,,,,,,,1,,2024-09-24_15h34.13.256,Motor_Task,2023.2.2,Win32,80.64516129,159.6913,160.5729,2,1,0.8813,,,,,,,1,M,,2,3,4,34,0,1,,
,,,,,,,,1,,2024-09-24_15h34.13.256,Motor_Task,2023.2.2,Win32,80.64516129,160.5733,161.0634,2,1,0.4897,,,,,,,8,M,,2,3,5,35,7,1,,
,,,,,,,,1,,2024-09-24_15h34.13.256,Motor_Task,2023.2.2,Win32,80.64516129,161.0637,161.6853,1,1,0.6211,,,,,,,5,I,,1,3,6,36,4,1,,
,,,,,,,,1,,2024-09-24_15h34.13.256,Motor_Task,2023.2.2,Win32,80.64516129,161.6856,162.285,3,1,0.5982,,,,,,,2,R,,3,3,7,37,1,1,,
,,,,,,,,1,,2024-09-24_15h34.13.256,Motor_Task,2023.2.2,Win32,80.64516129,162.2852,163.0381,4,1,0.7524,,,,,,,9,L,,4,3,8,38,8,1,,
,,,,,,,,1,,2024-09-24_15h34.13.256,Motor_Task,2023.2.2,Win32,80.64516129,163.0385,163.7279,3,1,0.6891,,,,,,,4,R,,3,3,9,39,3,1,,
,,,,,,,,1,,2024-09-24_15h34.13.256,Motor_Task,2023.2.2,Win32,80.64516129,163.7282,164.2902,2,1,0.5616,,,,,,,3,M,,2,4,0,40,2,1,,
,,,,,,,,1,,2024-09-24_15h34.13.256,Motor_Task,2023.2.2,Win32,80.64516129,164.2905,164.9958,4,1,0.7049,,,,,,,9,L,,4,4,1,41,8,1,,
,,,,,,,,1,,2024-09-24_15h34.13.256,Motor_Task,2023.2.2,Win32,80.64516129,164.9962,165.6991,3,1,0.7025,,,,,,,2,R,,3,4,2,42,1,1,,
,,,,,,,,1,,2024-09-24_15h34.13.256,Motor_Task,2023.2.2,Win32,80.64516129,165.6996,166.3168,3,1,0.6168,,,,,,,4,R,,3,4,3,43,3,1,,
,,,,,,,,1,,2024-09-24_15h34.13.256,Motor_Task,2023.2.2,Win32,80.64516129,166.3171,166.8726,1,1,0.555,,,,,,,10,I,,1,4,4,44,9,1,,
,,,,,,,,1,,2024-09-24_15h34.13.256,Motor_Task,2023.2.2,Win32,80.64516129,166.8729,167.4269,1,1,0.5535,,,,,,,6,I,,1,4,5,45,5,1,,
,,,,,,,,1,,2024-09-24_15h34.13.256,Motor_Task,2023.2.2,Win32,80.64516129,167.4273,168.0937,2,1,0.666,,,,,,,8,M,,2,4,6,46,7,1,,
,,,,,,,,1,,2024-09-24_15h34.13.256,Motor_Task,2023.2.2,Win32,80.64516129,168.094,168.7357,3,1,0.6413,,,,,,,7,R,,3,4,7,47,6,1,,
,,,,,,,,1,,2024-09-24_15h34.13.256,Motor_Task,2023.2.2,Win32,80.64516129,168.7361,169.4427,2,1,0.7063,,,,,,,1,M,,2,4,8,48,0,1,,
,,,,,,,,1,,2024-09-24_15h34.13.256,Motor_Task,2023.2.2,Win32,80.64516129,169.4431,170.0764,1,1,0.632,,,,,,,5,I,,1,4,9,49,4,1,,
,,,,,,,,1,,2024-09-24_15h34.13.256,Motor_Task,2023.2.2,Win32,80.64516129,,,,,,,,,,,,,,,,,,,,,170.077,174.0814