Trigger.started,Trigger.stopped,key_resp_4.keys,key_resp_4.rt,key_resp_4.duration,mouse.x,mouse.y,mouse.leftButton,mouse.midButton,mouse.rightButton,Session,Subject,date,expName,psychopyVersion,OS,frameRate,complex_block.started,complex_block.stopped,key_resp.keys,key_resp.corr,key_resp.rt,key_resp.duration,complex_block_loop.thisRepN,complex_block_loop.thisTrialN,complex_block_loop.thisN,complex_block_loop.thisIndex,complex_block_loop.ran,trial,finger,markerPos,correctResp,new_block_loop.thisRepN,new_block_loop.thisTrialN,new_block_loop.thisN,new_block_loop.thisIndex,new_block_loop.ran,endBuffer.started,endBuffer.stopped
0.0002,115.9011,space,115.8801,,-0.39067202,0.025028935,0,0,0,1,Optimus Prime,2024-09-24_15h32.20.822,Motor_Task,2023.2.2,MacIntel,120.4819277,,,,,,,,,,,,,,,,,,,,,,
,,,,,,,,,,1,Optimus Prime,2024-09-24_15h32.20.822,Motor_Task,2023.2.2,MacIntel,120.4819277,115.9174,116.767,2,1,0.8445,,0,0,0,0,1,1,M,,2,,,,,,,
,,,,,,,,,,1,Optimus Prime,2024-09-24_15h32.20.822,Motor_Task,2023.2.2,MacIntel,120.4819277,116.7674,117.742,3,1,0.9742,,0,1,1,1,1,2,R,,3,,,,,,,
,,,,,,,,,,1,Optimus Prime,2024-09-24_15h32.20.822,Motor_Task,2023.2.2,MacIntel,120.4819277,117.7422,118.4861,1,0,0.7419,,0,2,2,2,1,3,M,,2,,,,,,,
,,,,,,,,,,1,Optimus Prime,2024-09-24_15h32.20.822,Motor_Task,2023.2.2,MacIntel,120.4819277,118.4864,118.5525,2,0,0.0605,,0,3,3,3,1,4,R,,3,,,,,,,
,,,,,,,,,,1,Optimus Prime,2024-09-24_15h32.20.822,Motor_Task,2023.2.2,MacIntel,120.4819277,118.5528,119.278,1,1,0.7245,,0,4,4,4,1,5,I,,1,,,,,,,
,,,,,,,,,,1,Optimus Prime,2024-09-24_15h32.20.822,Motor_Task,2023.2.2,MacIntel,120.4819277,119.2782,119.9584,1,1,0.6799,,0,5,5,5,1,6,I,,1,,,,,,,
,,,,,,,,,,1,Optimus Prime,2024-09-24_15h32.20.822,Motor_Task,2023.2.2,MacIntel,120.4819277,119.9585,120.8543,3,1,0.8933,,0,6,6,6,1,7,R,,3,,,,,,,
,,,,,,,,,,1,Optimus Prime,2024-09-24_15h32.20.822,Motor_Task,2023.2.2,MacIntel,120.4819277,120.8546,121.5813,2,1,0.7264,,0,7,7,7,1,8,M,,2,,,,,,,
,,,,,,,,,,1,Optimus Prime,2024-09-24_15h32.20.822,Motor_Task,2023.2.2,MacIntel,120.4819277,121.5815,122.5835,4,1,0.997,,0,8,8,8,1,9,L,,4,,,,,,,
,,,,,,,,,,1,Optimus Prime,2024-09-24_15h32.20.822,Motor_Task,2023.2.2,MacIntel,120.4819277,122.5837,123.2282,1,1,0.6398,,0,9,9,9,1,10,I,,1,,,,,,,
,,,,,,,,,,1,Optimus Prime,2024-09-24_15h32.20.822,Motor_Task,2023.2.2,MacIntel,120.4819277,123.2286,123.825,2,1,0.5938,,1,0,10,0,1,1,M,,2,,,,,,,
,,,,,,,,,,1,Optimus Prime,2024-09-24_15h32.20.822,Motor_Task,2023.2.2,MacIntel,120.4819277,123.8253,124.5538,3,1,0.7262,,1,1,11,1,1,2,R,,3,,,,,,,
,,,,,,,,,,1,Optimus Prime,2024-09-24_15h32.20.822,Motor_Task,2023.2.2,MacIntel,120.4819277,124.5542,125.2164,2,1,0.6619,,1,2,12,2,1,3,M,,2,,,,,,,
,,,,,,,,,,1,Optimus Prime,2024-09-24_15h32.20.822,Motor_Task,2023.2.2,MacIntel,120.4819277,125.2168,125.842,3,1,0.6234,,1,3,13,3,1,4,R,,3,,,,,,,
,,,,,,,,,,1,Optimus Prime,2024-09-24_15h32.20.822,Motor_Task,2023.2.2,MacIntel,120.4819277,125.8424,126.4506,1,1,0.6031,,1,4,14,4,1,5,I,,1,,,,,,,
,,,,,,,,,,1,Optimus Prime,2024-09-24_15h32.20.822,Motor_Task,2023.2.2,MacIntel,120.4819277,126.4509,127.1574,1,1,0.7013,,1,5,15,5,1,6,I,,1,,,,,,,
,,,,,,,,,,1,Optimus Prime,2024-09-24_15h32.20.822,Motor_Task,2023.2.2,MacIntel,120.4819277,127.1576,127.9498,3,1,0.7917,,1,6,16,6,1,7,R,,3,,,,,,,
,,,,,,,,,,1,Optimus Prime,2024-09-24_15h32.20.822,Motor_Task,2023.2.2,MacIntel,120.4819277,127.9499,128.5285,2,1,0.5739,,1,7,17,7,1,8,M,,2,,,,,,,
,,,,,,,,,,1,Optimus Prime,2024-09-24_15h32.20.822,Motor_Task,2023.2.2,MacIntel,120.4819277,128.5287,129.505,4,1,0.9726,,1,8,18,8,1,9,L,,4,,,,,,,
,,,,,,,,,,1,Optimus Prime,2024-09-24_15h32.20.822,Motor_Task,2023.2.2,MacIntel,120.4819277,129.5054,130.1963,1,1,0.6907,,1,9,19,9,1,10,I,,1,,,,,,,
,,,,,,,,,,1,Optimus Prime,2024-09-24_15h32.20.822,Motor_Task,2023.2.2,MacIntel,120.4819277,130.1965,130.7995,2,1,0.5957,,2,0,20,0,1,1,M,,2,,,,,,,
,,,,,,,,,,1,Optimus Prime,2024-09-24_15h32.20.822,Motor_Task,2023.2.2,MacIntel,120.4819277,130.7999,131.4961,3,1,0.6929,,2,1,21,1,1,2,R,,3,,,,,,,
,,,,,,,,,,1,Optimus Prime,2024-09-24_15h32.20.822,Motor_Task,2023.2.2,MacIntel,120.4819277,131.4963,132.1464,2,1,0.65,,2,2,22,2,1,3,M,,2,,,,,,,
,,,,,,,,,,1,Optimus Prime,2024-09-24_15h32.20.822,Motor_Task,2023.2.2,MacIntel,120.4819277,132.1467,132.7343,3,1,0.5848,,2,3,23,3,1,4,R,,3,,,,,,,
,,,,,,,,,,1,Optimus Prime,2024-09-24_15h32.20.822,Motor_Task,2023.2.2,MacIntel,120.4819277,132.7348,133.3045,1,1,0.568,,2,4,24,4,1,5,I,,1,,,,,,,
,,,,,,,,,,1,Optimus Prime,2024-09-24_15h32.20.822,Motor_Task,2023.2.2,MacIntel,120.4819277,133.3049,133.9974,1,1,0.6861,,2,5,25,5,1,6,I,,1,,,,,,,
,,,,,,,,,,1,Optimus Prime,2024-09-24_15h32.20.822,Motor_Task,2023.2.2,MacIntel,120.4819277,133.9979,134.8024,3,1,0.8014,,2,6,26,6,1,7,R,,3,,,,,,,
,,,,,,,,,,1,Optimus Prime,2024-09-24_15h32.20.822,Motor_Task,2023.2.2,MacIntel,120.4819277,134.8027,135.49,2,1,0.6869,,2,7,27,7,1,8,M,,2,,,,,,,
,,,,,,,,,,1,Optimus Prime,2024-09-24_15h32.20.822,Motor_Task,2023.2.2,MacIntel,120.4819277,135.4901,136.2062,4,1,0.7118,,2,8,28,8,1,9,L,,4,,,,,,,
,,,,,,,,,,1,Optimus Prime,2024-09-24_15h32.20.822,Motor_Task,2023.2.2,MacIntel,120.4819277,136.2064,136.7586,1,1,0.55,,2,9,29,9,1,10,I,,1,,,,,,,
,,,,,,,,,,1,Optimus Prime,2024-09-24_15h32.20.822,Motor_Task,2023.2.2,MacIntel,120.4819277,136.7588,137.4181,2,1,0.6506,,3,0,30,0,1,1,M,,2,,,,,,,
,,,,,,,,,,1,Optimus Prime,2024-09-24_15h32.20.822,Motor_Task,2023.2.2,MacIntel,120.4819277,137.4183,138.0097,3,1,0.5913,,3,1,31,1,1,2,R,,3,,,,,,,
,,,,,,,,,,1,Optimus Prime,2024-09-24_15h32.20.822,Motor_Task,2023.2.2,MacIntel,120.4819277,138.01,138.6149,2,1,0.5993,,3,2,32,2,1,3,M,,2,,,,,,,
,,,,,,,,,,1,Optimus Prime,2024-09-24_15h32.20.822,Motor_Task,2023.2.2,MacIntel,120.4819277,138.6152,139.1578,3,1,0.5359,,3,3,33,3,1,4,R,,3,,,,,,,
,,,,,,,,,,1,Optimus Prime,2024-09-24_15h32.20.822,Motor_Task,2023.2.2,MacIntel,120.4819277,139.158,139.7216,1,1,0.5605,,3,4,34,4,1,5,I,,1,,,,,,,
,,,,,,,,,,1,Optimus Prime,2024-09-24_15h32.20.822,Motor_Task,2023.2.2,MacIntel,120.4819277,139.722,140.3388,1,1,0.6127,,3,5,35,5,1,6,I,,1,,,,,,,
,,,,,,,,,,1,Optimus Prime,2024-09-24_15h32.20.822,Motor_Task,2023.2.2,MacIntel,120.4819277,140.3392,141.1574,3,1,0.8147,,3,6,36,6,1,7,R,,3,,,,,,,
,,,,,,,,,,1,Optimus Prime,2024-09-24_15h32.20.822,Motor_Task,2023.2.2,MacIntel,120.4819277,141.1577,141.7311,2,1,0.5674,,3,7,37,7,1,8,M,,2,,,,,,,
,,,,,,,,,,1,Optimus Prime,2024-09-24_15h32.20.822,Motor_Task,2023.2.2,MacIntel,120.4819277,141.7315,142.3919,4,1,0.6584,,3,8,38,8,1,9,L,,4,,,,,,,
,,,,,,,,,,1,Optimus Prime,2024-09-24_15h32.20.822,Motor_Task,2023.2.2,MacIntel,120.4819277,142.3923,143.0046,1,1,0.6007,,3,9,39,9,1,10,I,,1,,,,,,,
,,,,,,,,,,1,Optimus Prime,2024-09-24_15h32.20.822,Motor_Task,2023.2.2,MacIntel,120.4819277,143.0048,143.5829,2,1,0.5755,,4,0,40,0,1,1,M,,2,,,,,,,
,,,,,,,,,,1,Optimus Prime,2024-09-24_15h32.20.822,Motor_Task,2023.2.2,MacIntel,120.4819277,143.5832,144.1104,3,1,0.5266,,4,1,41,1,1,2,R,,3,,,,,,,
,,,,,,,,,,1,Optimus Prime,2024-09-24_15h32.20.822,Motor_Task,2023.2.2,MacIntel,120.4819277,144.1106,144.6083,2,1,0.4926,,4,2,42,2,1,3,M,,2,,,,,,,
,,,,,,,,,,1,Optimus Prime,2024-09-24_15h32.20.822,Motor_Task,2023.2.2,MacIntel,120.4819277,144.6085,145.3136,3,1,0.6965,,4,3,43,3,1,4,R,,3,,,,,,,
,,,,,,,,,,1,Optimus Prime,2024-09-24_15h32.20.822,Motor_Task,2023.2.2,MacIntel,120.4819277,145.3139,145.9692,1,1,0.6536,,4,4,44,4,1,5,I,,1,,,,,,,
,,,,,,,,,,1,Optimus Prime,2024-09-24_15h32.20.822,Motor_Task,2023.2.2,MacIntel,120.4819277,145.9695,146.7,1,1,0.7279,,4,5,45,5,1,6,I,,1,,,,,,,
,,,,,,,,,,1,Optimus Prime,2024-09-24_15h32.20.822,Motor_Task,2023.2.2,MacIntel,120.4819277,146.7003,147.5091,3,1,0.8046,,4,6,46,6,1,7,R,,3,,,,,,,
,,,,,,,,,,1,Optimus Prime,2024-09-24_15h32.20.822,Motor_Task,2023.2.2,MacIntel,120.4819277,147.5095,148.0756,2,1,0.5634,,4,7,47,7,1,8,M,,2,,,,,,,
,,,,,,,,,,1,Optimus Prime,2024-09-24_15h32.20.822,Motor_Task,2023.2.2,MacIntel,120.4819277,148.0758,149.1504,4,1,1.074,,4,8,48,8,1,9,L,,4,,,,,,,
,,,,,,,,,,1,Optimus Prime,2024-09-24_15h32.20.822,Motor_Task,2023.2.2,MacIntel,120.4819277,149.1506,149.7856,1,1,0.6313,,4,9,49,9,1,10,I,,1,,,,,,,
,,,,,,,,,,1,Optimus Prime,2024-09-24_15h32.20.822,Motor_Task,2023.2.2,MacIntel,120.4819277,149.7859,150.4024,2,1,0.6133,,5,0,50,0,1,1,M,,2,,,,,,,
,,,,,,,,,,1,Optimus Prime,2024-09-24_15h32.20.822,Motor_Task,2023.2.2,MacIntel,120.4819277,150.4026,151.0889,3,1,0.6794,,5,1,51,1,1,2,R,,3,,,,,,,
,,,,,,,,,,1,Optimus Prime,2024-09-24_15h32.20.822,Motor_Task,2023.2.2,MacIntel,120.4819277,151.0892,151.6225,2,1,0.532,,5,2,52,2,1,3,M,,2,,,,,,,
,,,,,,,,,,1,Optimus Prime,2024-09-24_15h32.20.822,Motor_Task,2023.2.2,MacIntel,120.4819277,151.6227,152.1578,3,1,0.5314,,5,3,53,3,1,4,R,,3,,,,,,,
,,,,,,,,,,1,Optimus Prime,2024-09-24_15h32.20.822,Motor_Task,2023.2.2,MacIntel,120.4819277,152.1581,152.7612,1,1,0.6017,,5,4,54,4,1,5,I,,1,,,,,,,
,,,,,,,,,,1,Optimus Prime,2024-09-24_15h32.20.822,Motor_Task,2023.2.2,MacIntel,120.4819277,152.7615,153.3243,1,1,0.5591,,5,5,55,5,1,6,I,,1,,,,,,,
,,,,,,,,,,1,Optimus Prime,2024-09-24_15h32.20.822,Motor_Task,2023.2.2,MacIntel,120.4819277,153.3246,153.9811,3,1,0.6527,,5,6,56,6,1,7,R,,3,,,,,,,
,,,,,,,,,,1,Optimus Prime,2024-09-24_15h32.20.822,Motor_Task,2023.2.2,MacIntel,120.4819277,153.9815,154.5094,2,1,0.5276,,5,7,57,7,1,8,M,,2,,,,,,,
,,,,,,,,,,1,Optimus Prime,2024-09-24_15h32.20.822,Motor_Task,2023.2.2,MacIntel,120.4819277,154.5096,155.2072,4,1,0.6906,,5,8,58,8,1,9,L,,4,,,,,,,
,,,,,,,,,,1,Optimus Prime,2024-09-24_15h32.20.822,Motor_Task,2023.2.2,MacIntel,120.4819277,155.2076,155.7754,1,1,0.5651,,5,9,59,9,1,10,I,,1,,,,,,,
,,,,,,,,,,1,Optimus Prime,2024-09-24_15h32.20.822,Motor_Task,2023.2.2,MacIntel,120.4819277,155.7758,156.382,2,1,0.5992,,6,0,60,0,1,1,M,,2,,,,,,,
,,,,,,,,,,1,Optimus Prime,2024-09-24_15h32.20.822,Motor_Task,2023.2.2,MacIntel,120.4819277,156.3823,156.93,3,1,0.5421,,6,1,61,1,1,2,R,,3,,,,,,,
,,,,,,,,,,1,Optimus Prime,2024-09-24_15h32.20.822,Motor_Task,2023.2.2,MacIntel,120.4819277,156.9302,157.5136,2,1,0.5826,,6,2,62,2,1,3,M,,2,,,,,,,
,,,,,,,,,,1,Optimus Prime,2024-09-24_15h32.20.822,Motor_Task,2023.2.2,MacIntel,120.4819277,157.5142,158.0869,3,1,0.5708,,6,3,63,3,1,4,R,,3,,,,,,,
,,,,,,,,,,1,Optimus Prime,2024-09-24_15h32.20.822,Motor_Task,2023.2.2,MacIntel,120.4819277,158.0872,158.615,1,1,0.5256,,6,4,64,4,1,5,I,,1,,,,,,,
,,,,,,,,,,1,Optimus Prime,2024-09-24_15h32.20.822,Motor_Task,2023.2.2,MacIntel,120.4819277,158.6153,159.3241,1,1,0.7049,,6,5,65,5,1,6,I,,1,,,,,,,
,,,,,,,,,,1,Optimus Prime,2024-09-24_15h32.20.822,Motor_Task,2023.2.2,MacIntel,120.4819277,159.3243,160.1701,3,1,0.8449,,6,6,66,6,1,7,R,,3,,,,,,,
,,,,,,,,,,1,Optimus Prime,2024-09-24_15h32.20.822,Motor_Task,2023.2.2,MacIntel,120.4819277,160.1703,160.808,2,1,0.6375,,6,7,67,7,1,8,M,,2,,,,,,,
,,,,,,,,,,1,Optimus Prime,2024-09-24_15h32.20.822,Motor_Task,2023.2.2,MacIntel,120.4819277,160.8082,161.498,4,1,0.6825,,6,8,68,8,1,9,L,,4,,,,,,,
,,,,,,,,,,1,Optimus Prime,2024-09-24_15h32.20.822,Motor_Task,2023.2.2,MacIntel,120.4819277,161.4983,162.0919,1,1,0.5921,,6,9,69,9,1,10,I,,1,,,,,,,
,,,,,,,,,,1,Optimus Prime,2024-09-24_15h32.20.822,Motor_Task,2023.2.2,MacIntel,120.4819277,162.0921,162.8494,2,1,0.7557,,7,0,70,0,1,1,M,,2,,,,,,,
,,,,,,,,,,1,Optimus Prime,2024-09-24_15h32.20.822,Motor_Task,2023.2.2,MacIntel,120.4819277,162.8497,163.3334,3,1,0.4795,,7,1,71,1,1,2,R,,3,,,,,,,
,,,,,,,,,,1,Optimus Prime,2024-09-24_15h32.20.822,Motor_Task,2023.2.2,MacIntel,120.4819277,163.3337,163.8607,2,1,0.5225,,7,2,72,2,1,3,M,,2,,,,,,,
,,,,,,,,,,1,Optimus Prime,2024-09-24_15h32.20.822,Motor_Task,2023.2.2,MacIntel,120.4819277,163.8609,164.6851,3,1,0.8237,,7,3,73,3,1,4,R,,3,,,,,,,
,,,,,,,,,,1,Optimus Prime,2024-09-24_15h32.20.822,Motor_Task,2023.2.2,MacIntel,120.4819277,164.6854,165.1965,1,1,0.5041,,7,4,74,4,1,5,I,,1,,,,,,,
,,,,,,,,,,1,Optimus Prime,2024-09-24_15h32.20.822,Motor_Task,2023.2.2,MacIntel,120.4819277,165.1968,165.7465,1,1,0.5493,,7,5,75,5,1,6,I,,1,,,,,,,
,,,,,,,,,,1,Optimus Prime,2024-09-24_15h32.20.822,Motor_Task,2023.2.2,MacIntel,120.4819277,165.7466,166.6249,3,1,0.873,,7,6,76,6,1,7,R,,3,,,,,,,
,,,,,,,,,,1,Optimus Prime,2024-09-24_15h32.20.822,Motor_Task,2023.2.2,MacIntel,120.4819277,166.6252,167.2565,2,1,0.6307,,7,7,77,7,1,8,M,,2,,,,,,,
,,,,,,,,,,1,Optimus Prime,2024-09-24_15h32.20.822,Motor_Task,2023.2.2,MacIntel,120.4819277,167.2566,168.0909,4,1,0.8283,,7,8,78,8,1,9,L,,4,,,,,,,
,,,,,,,,,,1,Optimus Prime,2024-09-24_15h32.20.822,Motor_Task,2023.2.2,MacIntel,120.4819277,168.0912,168.6499,1,1,0.5586,,7,9,79,9,1,10,I,,1,,,,,,,
,,,,,,,,,,1,Optimus Prime,2024-09-24_15h32.20.822,Motor_Task,2023.2.2,MacIntel,120.4819277,168.6502,169.4158,2,1,0.7598,,8,0,80,0,1,1,M,,2,,,,,,,
,,,,,,,,,,1,Optimus Prime,2024-09-24_15h32.20.822,Motor_Task,2023.2.2,MacIntel,120.4819277,169.416,169.8908,3,1,0.4702,,8,1,81,1,1,2,R,,3,,,,,,,
,,,,,,,,,,1,Optimus Prime,2024-09-24_15h32.20.822,Motor_Task,2023.2.2,MacIntel,120.4819277,169.8912,170.4991,2,1,0.6051,,8,2,82,2,1,3,M,,2,,,,,,,
,,,,,,,,,,1,Optimus Prime,2024-09-24_15h32.20.822,Motor_Task,2023.2.2,MacIntel,120.4819277,170.4993,171.1992,3,1,0.6972,,8,3,83,3,1,4,R,,3,,,,,,,
,,,,,,,,,,1,Optimus Prime,2024-09-24_15h32.20.822,Motor_Task,2023.2.2,MacIntel,120.4819277,171.1994,171.8242,1,1,0.6197,,8,4,84,4,1,5,I,,1,,,,,,,
,,,,,,,,,,1,Optimus Prime,2024-09-24_15h32.20.822,Motor_Task,2023.2.2,MacIntel,120.4819277,171.8245,172.3823,1,1,0.5519,,8,5,85,5,1,6,I,,1,,,,,,,
,,,,,,,,,,1,Optimus Prime,2024-09-24_15h32.20.822,Motor_Task,2023.2.2,MacIntel,120.4819277,172.3825,173.1407,3,1,0.7527,,8,6,86,6,1,7,R,,3,,,,,,,
,,,,,,,,,,1,Optimus Prime,2024-09-24_15h32.20.822,Motor_Task,2023.2.2,MacIntel,120.4819277,173.141,173.8601,2,1,0.7185,,8,7,87,7,1,8,M,,2,,,,,,,
,,,,,,,,,,1,Optimus Prime,2024-09-24_15h32.20.822,Motor_Task,2023.2.2,MacIntel,120.4819277,173.8602,174.3685,4,1,0.508,,8,8,88,8,1,9,L,,4,,,,,,,
,,,,,,,,,,1,Optimus Prime,2024-09-24_15h32.20.822,Motor_Task,2023.2.2,MacIntel,120.4819277,174.3687,175.0963,1,1,0.7274,,8,9,89,9,1,10,I,,1,,,,,,,
,,,,,,,,,,1,Optimus Prime,2024-09-24_15h32.20.822,Motor_Task,2023.2.2,MacIntel,120.4819277,175.0965,176.0582,2,1,0.9612,,9,0,90,0,1,1,M,,2,,,,,,,
,,,,,,,,,,1,Optimus Prime,2024-09-24_15h32.20.822,Motor_Task,2023.2.2,MacIntel,120.4819277,176.0585,176.527,3,1,0.4682,,9,1,91,1,1,2,R,,3,,,,,,,
,,,,,,,,,,1,Optimus Prime,2024-09-24_15h32.20.822,Motor_Task,2023.2.2,MacIntel,120.4819277,176.5272,177.325,2,1,0.7933,,9,2,92,2,1,3,M,,2,,,,,,,
,,,,,,,,,,1,Optimus Prime,2024-09-24_15h32.20.822,Motor_Task,2023.2.2,MacIntel,120.4819277,177.3254,177.8087,3,1,0.4762,,9,3,93,3,1,4,R,,3,,,,,,,
,,,,,,,,,,1,Optimus Prime,2024-09-24_15h32.20.822,Motor_Task,2023.2.2,MacIntel,120.4819277,177.809,178.4372,1,1,0.627,,9,4,94,4,1,5,I,,1,,,,,,,
,,,,,,,,,,1,Optimus Prime,2024-09-24_15h32.20.822,Motor_Task,2023.2.2,MacIntel,120.4819277,178.4375,179.0011,1,1,0.5633,,9,5,95,5,1,6,I,,1,,,,,,,
,,,,,,,,,,1,Optimus Prime,2024-09-24_15h32.20.822,Motor_Task,2023.2.2,MacIntel,120.4819277,179.0013,179.762,3,1,0.7578,,9,6,96,6,1,7,R,,3,,,,,,,
,,,,,,,,,,1,Optimus Prime,2024-09-24_15h32.20.822,Motor_Task,2023.2.2,MacIntel,120.4819277,179.7622,180.3823,2,1,0.6189,,9,7,97,7,1,8,M,,2,,,,,,,
,,,,,,,,,,1,Optimus Prime,2024-09-24_15h32.20.822,Motor_Task,2023.2.2,MacIntel,120.4819277,180.3827,181.1949,4,1,0.8073,,9,8,98,8,1,9,L,,4,,,,,,,
,,,,,,,,,,1,Optimus Prime,2024-09-24_15h32.20.822,Motor_Task,2023.2.2,MacIntel,120.4819277,181.1952,181.8262,1,1,0.6295,,9,9,99,9,1,10,I,,1,,,,,,,
,,,,,,,,,,1,Optimus Prime,2024-09-24_15h32.20.822,Motor_Task,2023.2.2,MacIntel,120.4819277,181.8265,182.4862,2,1,0.656,,10,0,100,0,1,1,M,,2,,,,,,,
,,,,,,,,,,1,Optimus Prime,2024-09-24_15h32.20.822,Motor_Task,2023.2.2,MacIntel,120.4819277,182.4863,182.9066,3,1,0.4179,,10,1,101,1,1,2,R,,3,,,,,,,
,,,,,,,,,,1,Optimus Prime,2024-09-24_15h32.20.822,Motor_Task,2023.2.2,MacIntel,120.4819277,182.9069,183.4,2,1,0.4882,,10,2,102,2,1,3,M,,2,,,,,,,
,,,,,,,,,,1,Optimus Prime,2024-09-24_15h32.20.822,Motor_Task,2023.2.2,MacIntel,120.4819277,183.4003,183.9,3,1,0.4977,,10,3,103,3,1,4,R,,3,,,,,,,
,,,,,,,,,,1,Optimus Prime,2024-09-24_15h32.20.822,Motor_Task,2023.2.2,MacIntel,120.4819277,183.9004,184.4295,1,1,0.5261,,10,4,104,4,1,5,I,,1,,,,,,,
,,,,,,,,,,1,Optimus Prime,2024-09-24_15h32.20.822,Motor_Task,2023.2.2,MacIntel,120.4819277,184.4297,184.9189,2,0,0.4875,,10,5,105,5,1,6,I,,1,,,,,,,
,,,,,,,,,,1,Optimus Prime,2024-09-24_15h32.20.822,Motor_Task,2023.2.2,MacIntel,120.4819277,184.9193,186.0679,3,1,1.1483,,10,6,106,6,1,7,R,,3,,,,,,,
,,,,,,,,,,1,Optimus Prime,2024-09-24_15h32.20.822,Motor_Task,2023.2.2,MacIntel,120.4819277,186.0681,186.7778,2,1,0.7087,,10,7,107,7,1,8,M,,2,,,,,,,
,,,,,,,,,,1,Optimus Prime,2024-09-24_15h32.20.822,Motor_Task,2023.2.2,MacIntel,120.4819277,186.7779,187.4497,4,1,0.6695,,10,8,108,8,1,9,L,,4,,,,,,,
,,,,,,,,,,1,Optimus Prime,2024-09-24_15h32.20.822,Motor_Task,2023.2.2,MacIntel,120.4819277,187.4501,188.0177,1,1,0.5629,,10,9,109,9,1,10,I,,1,,,,,,,
,,,,,,,,,,1,Optimus Prime,2024-09-24_15h32.20.822,Motor_Task,2023.2.2,MacIntel,120.4819277,188.0181,188.6334,2,1,0.6128,,11,0,110,0,1,1,M,,2,,,,,,,
,,,,,,,,,,1,Optimus Prime,2024-09-24_15h32.20.822,Motor_Task,2023.2.2,MacIntel,120.4819277,188.6338,189.3842,3,1,0.7453,,11,1,111,1,1,2,R,,3,,,,,,,
,,,,,,,,,,1,Optimus Prime,2024-09-24_15h32.20.822,Motor_Task,2023.2.2,MacIntel,120.4819277,189.385,189.9759,2,1,0.5905,,11,2,112,2,1,3,M,,2,,,,,,,
,,,,,,,,,,1,Optimus Prime,2024-09-24_15h32.20.822,Motor_Task,2023.2.2,MacIntel,120.4819277,189.9762,191.1901,3,1,1.2109,,11,3,113,3,1,4,R,,3,,,,,,,
,,,,,,,,,,1,Optimus Prime,2024-09-24_15h32.20.822,Motor_Task,2023.2.2,MacIntel,120.4819277,191.1902,191.9148,1,1,0.7188,,11,4,114,4,1,5,I,,1,,,,,,,
,,,,,,,,,,1,Optimus Prime,2024-09-24_15h32.20.822,Motor_Task,2023.2.2,MacIntel,120.4819277,191.9152,192.596,1,1,0.6754,,11,5,115,5,1,6,I,,1,,,,,,,
,,,,,,,,,,1,Optimus Prime,2024-09-24_15h32.20.822,Motor_Task,2023.2.2,MacIntel,120.4819277,192.5962,193.303,3,1,0.7064,,11,6,116,6,1,7,R,,3,,,,,,,
,,,,,,,,,,1,Optimus Prime,2024-09-24_15h32.20.822,Motor_Task,2023.2.2,MacIntel,120.4819277,193.3032,194.0452,2,1,0.7365,,11,7,117,7,1,8,M,,2,,,,,,,
,,,,,,,,,,1,Optimus Prime,2024-09-24_15h32.20.822,Motor_Task,2023.2.2,MacIntel,120.4819277,194.0455,195.2331,4,1,1.1857,,11,8,118,8,1,9,L,,4,,,,,,,
,,,,,,,,,,1,Optimus Prime,2024-09-24_15h32.20.822,Motor_Task,2023.2.2,MacIntel,120.4819277,195.2334,195.8277,1,1,0.5882,,11,9,119,9,1,10,I,,1,,,,,,,
,,,,,,,,,,1,Optimus Prime,2024-09-24_15h32.20.822,Motor_Task,2023.2.2,MacIntel,120.4819277,195.828,196.5605,2,1,0.7302,,12,0,120,0,1,1,M,,2,,,,,,,
,,,,,,,,,,1,Optimus Prime,2024-09-24_15h32.20.822,Motor_Task,2023.2.2,MacIntel,120.4819277,196.5609,197.1147,3,1,0.5507,,12,1,121,1,1,2,R,,3,,,,,,,
,,,,,,,,,,1,Optimus Prime,2024-09-24_15h32.20.822,Motor_Task,2023.2.2,MacIntel,120.4819277,197.115,197.693,2,1,0.5777,,12,2,122,2,1,3,M,,2,,,,,,,
,,,,,,,,,,1,Optimus Prime,2024-09-24_15h32.20.822,Motor_Task,2023.2.2,MacIntel,120.4819277,197.6933,198.1576,3,1,0.4586,,12,3,123,3,1,4,R,,3,,,,,,,
,,,,,,,,,,1,Optimus Prime,2024-09-24_15h32.20.822,Motor_Task,2023.2.2,MacIntel,120.4819277,198.158,198.7491,1,1,0.5894,,12,4,124,4,1,5,I,,1,,,,,,,
,,,,,,,,,,1,Optimus Prime,2024-09-24_15h32.20.822,Motor_Task,2023.2.2,MacIntel,120.4819277,198.7494,199.1908,1,1,0.4362,,12,5,125,5,1,6,I,,1,,,,,,,
,,,,,,,,,,1,Optimus Prime,2024-09-24_15h32.20.822,Motor_Task,2023.2.2,MacIntel,120.4819277,199.1911,200.1077,3,1,0.9163,,12,6,126,6,1,7,R,,3,,,,,,,
,,,,,,,,,,1,Optimus Prime,2024-09-24_15h32.20.822,Motor_Task,2023.2.2,MacIntel,120.4819277,200.108,200.5982,2,1,0.485,,12,7,127,7,1,8,M,,2,,,,,,,
,,,,,,,,,,1,Optimus Prime,2024-09-24_15h32.20.822,Motor_Task,2023.2.2,MacIntel,120.4819277,200.5984,201.4447,4,1,0.846,,12,8,128,8,1,9,L,,4,,,,,,,
,,,,,,,,,,1,Optimus Prime,2024-09-24_15h32.20.822,Motor_Task,2023.2.2,MacIntel,120.4819277,201.4449,202.0615,1,1,0.6132,,12,9,129,9,1,10,I,,1,,,,,,,
,,,,,,,,,,1,Optimus Prime,2024-09-24_15h32.20.822,Motor_Task,2023.2.2,MacIntel,120.4819277,202.0619,202.6864,2,1,0.6208,,13,0,130,0,1,1,M,,2,,,,,,,
,,,,,,,,,,1,Optimus Prime,2024-09-24_15h32.20.822,Motor_Task,2023.2.2,MacIntel,120.4819277,202.6867,203.1527,3,1,0.4648,,13,1,131,1,1,2,R,,3,,,,,,,
,,,,,,,,,,1,Optimus Prime,2024-09-24_15h32.20.822,Motor_Task,2023.2.2,MacIntel,120.4819277,203.153,203.6115,2,1,0.4563,,13,2,132,2,1,3,M,,2,,,,,,,
,,,,,,,,,,1,Optimus Prime,2024-09-24_15h32.20.822,Motor_Task,2023.2.2,MacIntel,120.4819277,203.6118,204.0544,3,1,0.4425,,13,3,133,3,1,4,R,,3,,,,,,,
,,,,,,,,,,1,Optimus Prime,2024-09-24_15h32.20.822,Motor_Task,2023.2.2,MacIntel,120.4819277,204.0547,204.5777,1,1,0.5191,,13,4,134,4,1,5,I,,1,,,,,,,
,,,,,,,,,,1,Optimus Prime,2024-09-24_15h32.20.822,Motor_Task,2023.2.2,MacIntel,120.4819277,204.5779,205.0948,1,1,0.5127,,13,5,135,5,1,6,I,,1,,,,,,,
,,,,,,,,,,1,Optimus Prime,2024-09-24_15h32.20.822,Motor_Task,2023.2.2,MacIntel,120.4819277,205.095,205.6782,3,1,0.5764,,13,6,136,6,1,7,R,,3,,,,,,,
,,,,,,,,,,1,Optimus Prime,2024-09-24_15h32.20.822,Motor_Task,2023.2.2,MacIntel,120.4819277,205.6784,206.1545,2,1,0.4759,,13,7,137,7,1,8,M,,2,,,,,,,
,,,,,,,,,,1,Optimus Prime,2024-09-24_15h32.20.822,Motor_Task,2023.2.2,MacIntel,120.4819277,206.1547,206.8222,4,1,0.6645,,13,8,138,8,1,9,L,,4,,,,,,,
,,,,,,,,,,1,Optimus Prime,2024-09-24_15h32.20.822,Motor_Task,2023.2.2,MacIntel,120.4819277,206.8224,207.3119,1,1,0.4837,,13,9,139,9,1,10,I,,1,,,,,,,
,,,,,,,,,,1,Optimus Prime,2024-09-24_15h32.20.822,Motor_Task,2023.2.2,MacIntel,120.4819277,207.3121,207.8711,2,1,0.5587,,14,0,140,0,1,1,M,,2,,,,,,,
,,,,,,,,,,1,Optimus Prime,2024-09-24_15h32.20.822,Motor_Task,2023.2.2,MacIntel,120.4819277,207.8712,208.4835,3,1,0.6094,,14,1,141,1,1,2,R,,3,,,,,,,
,,,,,,,,,,1,Optimus Prime,2024-09-24_15h32.20.822,Motor_Task,2023.2.2,MacIntel,120.4819277,208.4836,208.8993,2,1,0.4103,,14,2,142,2,1,3,M,,2,,,,,,,
,,,,,,,,,,1,Optimus Prime,2024-09-24_15h32.20.822,Motor_Task,2023.2.2,MacIntel,120.4819277,208.8995,209.2963,3,1,0.3948,,14,3,143,3,1,4,R,,3,,,,,,,
,,,,,,,,,,1,Optimus Prime,2024-09-24_15h32.20.822,Motor_Task,2023.2.2,MacIntel,120.4819277,209.2967,209.7001,1,1,0.4029,,14,4,144,4,1,5,I,,1,,,,,,,
,,,,,,,,,,1,Optimus Prime,2024-09-24_15h32.20.822,Motor_Task,2023.2.2,MacIntel,120.4819277,209.7004,210.3706,1,1,0.6651,,14,5,145,5,1,6,I,,1,,,,,,,
,,,,,,,,,,1,Optimus Prime,2024-09-24_15h32.20.822,Motor_Task,2023.2.2,MacIntel,120.4819277,210.371,211.1617,3,1,0.785,,14,6,146,6,1,7,R,,3,,,,,,,
,,,,,,,,,,1,Optimus Prime,2024-09-24_15h32.20.822,Motor_Task,2023.2.2,MacIntel,120.4819277,211.1619,211.6782,2,1,0.5142,,14,7,147,7,1,8,M,,2,,,,,,,
,,,,,,,,,,1,Optimus Prime,2024-09-24_15h32.20.822,Motor_Task,2023.2.2,MacIntel,120.4819277,211.6784,212.2716,4,1,0.593,,14,8,148,8,1,9,L,,4,,,,,,,
,,,,,,,,,,1,Optimus Prime,2024-09-24_15h32.20.822,Motor_Task,2023.2.2,MacIntel,120.4819277,212.2718,212.9948,1,1,0.7177,,14,9,149,9,1,10,I,,1,,,,,,,
,,,,,,,,,,1,Optimus Prime,2024-09-24_15h32.20.822,Motor_Task,2023.2.2,MacIntel,120.4819277,212.995,213.8537,2,1,0.8529,,15,0,150,0,1,1,M,,2,,,,,,,
,,,,,,,,,,1,Optimus Prime,2024-09-24_15h32.20.822,Motor_Task,2023.2.2,MacIntel,120.4819277,213.8542,214.2878,3,1,0.4333,,15,1,151,1,1,2,R,,3,,,,,,,
,,,,,,,,,,1,Optimus Prime,2024-09-24_15h32.20.822,Motor_Task,2023.2.2,MacIntel,120.4819277,214.288,214.7198,2,1,0.4275,,15,2,152,2,1,3,M,,2,,,,,,,
,,,,,,,,,,1,Optimus Prime,2024-09-24_15h32.20.822,Motor_Task,2023.2.2,MacIntel,120.4819277,214.7202,214.9865,3,1,0.2621,,15,3,153,3,1,4,R,,3,,,,,,,
,,,,,,,,,,1,Optimus Prime,2024-09-24_15h32.20.822,Motor_Task,2023.2.2,MacIntel,120.4819277,214.9868,215.5362,1,1,0.5437,,15,4,154,4,1,5,I,,1,,,,,,,
,,,,,,,,,,1,Optimus Prime,2024-09-24_15h32.20.822,Motor_Task,2023.2.2,MacIntel,120.4819277,215.5364,215.928,4,0,0.3856,,15,5,155,5,1,6,I,,1,,,,,,,
,,,,,,,,,,1,Optimus Prime,2024-09-24_15h32.20.822,Motor_Task,2023.2.2,MacIntel,120.4819277,215.9282,217.8823,3,1,1.949,,15,6,156,6,1,7,R,,3,,,,,,,
,,,,,,,,,,1,Optimus Prime,2024-09-24_15h32.20.822,Motor_Task,2023.2.2,MacIntel,120.4819277,217.8826,218.5572,2,1,0.6731,,15,7,157,7,1,8,M,,2,,,,,,,
,,,,,,,,,,1,Optimus Prime,2024-09-24_15h32.20.822,Motor_Task,2023.2.2,MacIntel,120.4819277,218.5576,219.1904,4,1,0.6271,,15,8,158,8,1,9,L,,4,,,,,,,
,,,,,,,,,,1,Optimus Prime,2024-09-24_15h32.20.822,Motor_Task,2023.2.2,MacIntel,120.4819277,219.1906,219.7912,1,1,0.5948,,15,9,159,9,1,10,I,,1,,,,,,,
,,,,,,,,,,1,Optimus Prime,2024-09-24_15h32.20.822,Motor_Task,2023.2.2,MacIntel,120.4819277,219.7918,220.4238,2,1,0.627,,16,0,160,0,1,1,M,,2,,,,,,,
,,,,,,,,,,1,Optimus Prime,2024-09-24_15h32.20.822,Motor_Task,2023.2.2,MacIntel,120.4819277,220.4242,220.974,3,1,0.5437,,16,1,161,1,1,2,R,,3,,,,,,,
,,,,,,,,,,1,Optimus Prime,2024-09-24_15h32.20.822,Motor_Task,2023.2.2,MacIntel,120.4819277,220.9742,221.4575,2,1,0.4829,,16,2,162,2,1,3,M,,2,,,,,,,
,,,,,,,,,,1,Optimus Prime,2024-09-24_15h32.20.822,Motor_Task,2023.2.2,MacIntel,120.4819277,221.4578,221.6646,3,1,0.2014,,16,3,163,3,1,4,R,,3,,,,,,,
,,,,,,,,,,1,Optimus Prime,2024-09-24_15h32.20.822,Motor_Task,2023.2.2,MacIntel,120.4819277,221.6648,222.3239,1,1,0.6582,,16,4,164,4,1,5,I,,1,,,,,,,
,,,,,,,,,,1,Optimus Prime,2024-09-24_15h32.20.822,Motor_Task,2023.2.2,MacIntel,120.4819277,222.3241,222.7838,1,1,0.4595,,16,5,165,5,1,6,I,,1,,,,,,,
,,,,,,,,,,1,Optimus Prime,2024-09-24_15h32.20.822,Motor_Task,2023.2.2,MacIntel,120.4819277,222.7841,223.366,3,1,0.5817,,16,6,166,6,1,7,R,,3,,,,,,,
,,,,,,,,,,1,Optimus Prime,2024-09-24_15h32.20.822,Motor_Task,2023.2.2,MacIntel,120.4819277,223.3662,223.7816,2,1,0.4152,,16,7,167,7,1,8,M,,2,,,,,,,
,,,,,,,,,,1,Optimus Prime,2024-09-24_15h32.20.822,Motor_Task,2023.2.2,MacIntel,120.4819277,223.7818,224.5691,4,1,0.7818,,16,8,168,8,1,9,L,,4,,,,,,,
,,,,,,,,,,1,Optimus Prime,2024-09-24_15h32.20.822,Motor_Task,2023.2.2,MacIntel,120.4819277,224.5694,225.2697,1,1,0.6951,,16,9,169,9,1,10,I,,1,,,,,,,
,,,,,,,,,,1,Optimus Prime,2024-09-24_15h32.20.822,Motor_Task,2023.2.2,MacIntel,120.4819277,225.27,225.9197,2,1,0.6445,,17,0,170,0,1,1,M,,2,,,,,,,
,,,,,,,,,,1,Optimus Prime,2024-09-24_15h32.20.822,Motor_Task,2023.2.2,MacIntel,120.4819277,225.9199,226.4618,3,1,0.5417,,17,1,171,1,1,2,R,,3,,,,,,,
,,,,,,,,,,1,Optimus Prime,2024-09-24_15h32.20.822,Motor_Task,2023.2.2,MacIntel,120.4819277,226.462,226.8733,2,1,0.411,,17,2,172,2,1,3,M,,2,,,,,,,
,,,,,,,,,,1,Optimus Prime,2024-09-24_15h32.20.822,Motor_Task,2023.2.2,MacIntel,120.4819277,226.8736,227.319,3,1,0.4432,,17,3,173,3,1,4,R,,3,,,,,,,
,,,,,,,,,,1,Optimus Prime,2024-09-24_15h32.20.822,Motor_Task,2023.2.2,MacIntel,120.4819277,227.3194,227.9279,1,1,0.6037,,17,4,174,4,1,5,I,,1,,,,,,,
,,,,,,,,,,1,Optimus Prime,2024-09-24_15h32.20.822,Motor_Task,2023.2.2,MacIntel,120.4819277,227.9282,228.5029,1,1,0.5693,,17,5,175,5,1,6,I,,1,,,,,,,
,,,,,,,,,,1,Optimus Prime,2024-09-24_15h32.20.822,Motor_Task,2023.2.2,MacIntel,120.4819277,228.5032,229.2945,3,1,0.7869,,17,6,176,6,1,7,R,,3,,,,,,,
,,,,,,,,,,1,Optimus Prime,2024-09-24_15h32.20.822,Motor_Task,2023.2.2,MacIntel,120.4819277,229.2947,229.8209,2,1,0.5259,,17,7,177,7,1,8,M,,2,,,,,,,
,,,,,,,,,,1,Optimus Prime,2024-09-24_15h32.20.822,Motor_Task,2023.2.2,MacIntel,120.4819277,229.8212,230.4862,4,1,0.6628,,17,8,178,8,1,9,L,,4,,,,,,,
,,,,,,,,,,1,Optimus Prime,2024-09-24_15h32.20.822,Motor_Task,2023.2.2,MacIntel,120.4819277,230.4865,231.1776,1,1,0.6871,,17,9,179,9,1,10,I,,1,,,,,,,
,,,,,,,,,,1,Optimus Prime,2024-09-24_15h32.20.822,Motor_Task,2023.2.2,MacIntel,120.4819277,231.1778,231.7618,2,1,0.5782,,18,0,180,0,1,1,M,,2,,,,,,,
,,,,,,,,,,1,Optimus Prime,2024-09-24_15h32.20.822,Motor_Task,2023.2.2,MacIntel,120.4819277,231.7621,232.2945,3,1,0.5274,,18,1,181,1,1,2,R,,3,,,,,,,
,,,,,,,,,,1,Optimus Prime,2024-09-24_15h32.20.822,Motor_Task,2023.2.2,MacIntel,120.4819277,232.2947,232.6784,2,1,0.3835,,18,2,182,2,1,3,M,,2,,,,,,,
,,,,,,,,,,1,Optimus Prime,2024-09-24_15h32.20.822,Motor_Task,2023.2.2,MacIntel,120.4819277,232.6787,233.087,3,1,0.4081,,18,3,183,3,1,4,R,,3,,,,,,,
,,,,,,,,,,1,Optimus Prime,2024-09-24_15h32.20.822,Motor_Task,2023.2.2,MacIntel,120.4819277,233.0873,233.6452,1,1,0.5576,,18,4,184,4,1,5,I,,1,,,,,,,
,,,,,,,,,,1,Optimus Prime,2024-09-24_15h32.20.822,Motor_Task,2023.2.2,MacIntel,120.4819277,233.6455,234.1278,1,1,0.4771,,18,5,185,5,1,6,I,,1,,,,,,,
,,,,,,,,,,1,Optimus Prime,2024-09-24_15h32.20.822,Motor_Task,2023.2.2,MacIntel,120.4819277,234.128,234.9043,3,1,0.7762,,18,6,186,6,1,7,R,,3,,,,,,,
,,,,,,,,,,1,Optimus Prime,2024-09-24_15h32.20.822,Motor_Task,2023.2.2,MacIntel,120.4819277,234.9045,235.3362,2,1,0.4257,,18,7,187,7,1,8,M,,2,,,,,,,
,,,,,,,,,,1,Optimus Prime,2024-09-24_15h32.20.822,Motor_Task,2023.2.2,MacIntel,120.4819277,235.3366,235.911,4,1,0.5686,,18,8,188,8,1,9,L,,4,,,,,,,
,,,,,,,,,,1,Optimus Prime,2024-09-24_15h32.20.822,Motor_Task,2023.2.2,MacIntel,120.4819277,235.9113,236.4613,1,1,0.5462,,18,9,189,9,1,10,I,,1,,,,,,,
,,,,,,,,,,1,Optimus Prime,2024-09-24_15h32.20.822,Motor_Task,2023.2.2,MacIntel,120.4819277,236.4615,237.186,2,1,0.7229,,19,0,190,0,1,1,M,,2,,,,,,,
,,,,,,,,,,1,Optimus Prime,2024-09-24_15h32.20.822,Motor_Task,2023.2.2,MacIntel,120.4819277,237.1861,237.6277,3,1,0.4387,,19,1,191,1,1,2,R,,3,,,,,,,
,,,,,,,,,,1,Optimus Prime,2024-09-24_15h32.20.822,Motor_Task,2023.2.2,MacIntel,120.4819277,237.6278,238.0695,2,1,0.4366,,19,2,192,2,1,3,M,,2,,,,,,,
,,,,,,,,,,1,Optimus Prime,2024-09-24_15h32.20.822,Motor_Task,2023.2.2,MacIntel,120.4819277,238.0699,238.3716,3,1,0.3014,,19,3,193,3,1,4,R,,3,,,,,,,
,,,,,,,,,,1,Optimus Prime,2024-09-24_15h32.20.822,Motor_Task,2023.2.2,MacIntel,120.4819277,238.3719,238.8797,1,1,0.5076,,19,4,194,4,1,5,I,,1,,,,,,,
,,,,,,,,,,1,Optimus Prime,2024-09-24_15h32.20.822,Motor_Task,2023.2.2,MacIntel,120.4819277,238.8799,239.3297,1,1,0.4496,,19,5,195,5,1,6,I,,1,,,,,,,
,,,,,,,,,,1,Optimus Prime,2024-09-24_15h32.20.822,Motor_Task,2023.2.2,MacIntel,120.4819277,239.3299,239.9861,3,1,0.6529,,19,6,196,6,1,7,R,,3,,,,,,,
,,,,,,,,,,1,Optimus Prime,2024-09-24_15h32.20.822,Motor_Task,2023.2.2,MacIntel,120.4819277,239.9864,240.2628,2,1,0.2762,,19,7,197,7,1,8,M,,2,,,,,,,
,,,,,,,,,,1,Optimus Prime,2024-09-24_15h32.20.822,Motor_Task,2023.2.2,MacIntel,120.4819277,240.2631,240.9362,4,1,0.6723,,19,8,198,8,1,9,L,,4,,,,,,,
,,,,,,,,,,1,Optimus Prime,2024-09-24_15h32.20.822,Motor_Task,2023.2.2,MacIntel,120.4819277,240.9366,241.6029,1,1,0.6662,,19,9,199,9,1,10,I,,1,,,,,,,
,,,,,,,,,,1,Optimus Prime,2024-09-24_15h32.20.822,Motor_Task,2023.2.2,MacIntel,120.4819277,241.609,242.2213,2,1,0.6121,,,,,,,8,M,,2,0,0,0,7,1,,
,,,,,,,,,,1,Optimus Prime,2024-09-24_15h32.20.822,Motor_Task,2023.2.2,MacIntel,120.4819277,242.2216,242.8126,1,1,0.5907,,,,,,,5,I,,1,0,1,1,4,1,,
,,,,,,,,,,1,Optimus Prime,2024-09-24_15h32.20.822,Motor_Task,2023.2.2,MacIntel,120.4819277,242.8129,243.5111,3,1,0.6948,,,,,,,7,R,,3,0,2,2,6,1,,
,,,,,,,,,,1,Optimus Prime,2024-09-24_15h32.20.822,Motor_Task,2023.2.2,MacIntel,120.4819277,243.5114,244.104,1,1,0.5922,,,,,,,10,I,,1,0,3,3,9,1,,
,,,,,,,,,,1,Optimus Prime,2024-09-24_15h32.20.822,Motor_Task,2023.2.2,MacIntel,120.4819277,244.1043,244.6191,1,1,0.5102,,,,,,,6,I,,1,0,4,4,5,1,,
,,,,,,,,,,1,Optimus Prime,2024-09-24_15h32.20.822,Motor_Task,2023.2.2,MacIntel,120.4819277,244.6194,245.2943,2,1,0.6691,,,,,,,1,M,,2,0,5,5,0,1,,
,,,,,,,,,,1,Optimus Prime,2024-09-24_15h32.20.822,Motor_Task,2023.2.2,MacIntel,120.4819277,245.2945,245.7782,3,1,0.4832,,,,,,,4,R,,3,0,6,6,3,1,,
,,,,,,,,,,1,Optimus Prime,2024-09-24_15h32.20.822,Motor_Task,2023.2.2,MacIntel,120.4819277,245.7783,246.4162,3,1,0.6376,,,,,,,2,R,,3,0,7,7,1,1,,
,,,,,,,,,,1,Optimus Prime,2024-09-24_15h32.20.822,Motor_Task,2023.2.2,MacIntel,120.4819277,246.4164,246.98,2,1,0.557,,,,,,,3,M,,2,0,8,8,2,1,,
,,,,,,,,,,1,Optimus Prime,2024-09-24_15h32.20.822,Motor_Task,2023.2.2,MacIntel,120.4819277,246.9809,247.6619,4,1,0.6756,,,,,,,9,L,,4,0,9,9,8,1,,
,,,,,,,,,,1,Optimus Prime,2024-09-24_15h32.20.822,Motor_Task,2023.2.2,MacIntel,120.4819277,247.6622,248.2952,3,1,0.6309,,,,,,,4,R,,3,1,0,10,3,1,,
,,,,,,,,,,1,Optimus Prime,2024-09-24_15h32.20.822,Motor_Task,2023.2.2,MacIntel,120.4819277,248.2955,248.9277,1,1,0.6263,,,,,,,6,I,,1,1,1,11,5,1,,
,,,,,,,,,,1,Optimus Prime,2024-09-24_15h32.20.822,Motor_Task,2023.2.2,MacIntel,120.4819277,248.928,249.5365,3,1,0.6035,,,,,,,7,R,,3,1,2,12,6,1,,
,,,,,,,,,,1,Optimus Prime,2024-09-24_15h32.20.822,Motor_Task,2023.2.2,MacIntel,120.4819277,249.5368,250.2417,3,1,0.6953,,,,,,,2,R,,3,1,3,13,1,1,,
,,,,,,,,,,1,Optimus Prime,2024-09-24_15h32.20.822,Motor_Task,2023.2.2,MacIntel,120.4819277,250.2422,250.8621,1,1,0.6152,,,,,,,10,I,,1,1,4,14,9,1,,
,,,,,,,,,,1,Optimus Prime,2024-09-24_15h32.20.822,Motor_Task,2023.2.2,MacIntel,120.4819277,250.8625,251.3999,2,1,0.5371,,,,,,,3,M,,2,1,5,15,2,1,,
,,,,,,,,,,1,Optimus Prime,2024-09-24_15h32.20.822,Motor_Task,2023.2.2,MacIntel,120.4819277,251.4001,251.9529,1,1,0.5497,,,,,,,5,I,,1,1,6,16,4,1,,
,,,,,,,,,,1,Optimus Prime,2024-09-24_15h32.20.822,Motor_Task,2023.2.2,MacIntel,120.4819277,251.9532,252.5699,2,1,0.6164,,,,,,,1,M,,2,1,7,17,0,1,,
,,,,,,,,,,1,Optimus Prime,2024-09-24_15h32.20.822,Motor_Task,2023.2.2,MacIntel,120.4819277,252.5702,253.1988,4,1,0.6254,,,,,,,9,L,,4,1,8,18,8,1,,
,,,,,,,,,,1,Optimus Prime,2024-09-24_15h32.20.822,Motor_Task,2023.2.2,MacIntel,120.4819277,253.1991,254.0194,2,1,0.8144,,,,,,,8,M,,2,1,9,19,7,1,,
,,,,,,,,,,1,Optimus Prime,2024-09-24_15h32.20.822,Motor_Task,2023.2.2,MacIntel,120.4819277,254.0197,254.6023,3,1,0.5804,,,,,,,2,R,,3,2,0,20,1,1,,
,,,,,,,,,,1,Optimus Prime,2024-09-24_15h32.20.822,Motor_Task,2023.2.2,MacIntel,120.4819277,254.6027,255.1182,2,1,0.5129,,,,,,,8,M,,2,2,1,21,7,1,,
,,,,,,,,,,1,Optimus Prime,2024-09-24_15h32.20.822,Motor_Task,2023.2.2,MacIntel,120.4819277,255.1185,255.7705,4,1,0.6487,,,,,,,9,L,,4,2,2,22,8,1,,
,,,,,,,,,,1,Optimus Prime,2024-09-24_15h32.20.822,Motor_Task,2023.2.2,MacIntel,120.4819277,255.7708,256.2003,1,1,0.423,,,,,,,5,I,,1,2,3,23,4,1,,
,,,,,,,,,,1,Optimus Prime,2024-09-24_15h32.20.822,Motor_Task,2023.2.2,MacIntel,120.4819277,256.2005,256.7924,2,1,0.5907,,,,,,,3,M,,2,2,4,24,2,1,,
,,,,,,,,,,1,Optimus Prime,2024-09-24_15h32.20.822,Motor_Task,2023.2.2,MacIntel,120.4819277,256.7927,257.8628,2,1,1.0637,,,,,,,1,M,,2,2,5,25,0,1,,
,,,,,,,,,,1,Optimus Prime,2024-09-24_15h32.20.822,Motor_Task,2023.2.2,MacIntel,120.4819277,257.8632,258.5736,3,1,0.7021,,,,,,,7,R,,3,2,6,26,6,1,,
,,,,,,,,,,1,Optimus Prime,2024-09-24_15h32.20.822,Motor_Task,2023.2.2,MacIntel,120.4819277,258.574,259.1716,1,1,0.5974,,,,,,,10,I,,1,2,7,27,9,1,,
,,,,,,,,,,1,Optimus Prime,2024-09-24_15h32.20.822,Motor_Task,2023.2.2,MacIntel,120.4819277,259.1719,259.9046,3,1,0.7325,,,,,,,4,R,,3,2,8,28,3,1,,
,,,,,,,,,,1,Optimus Prime,2024-09-24_15h32.20.822,Motor_Task,2023.2.2,MacIntel,120.4819277,259.9048,260.5146,1,1,0.6094,,,,,,,6,I,,1,2,9,29,5,1,,
,,,,,,,,,,1,Optimus Prime,2024-09-24_15h32.20.822,Motor_Task,2023.2.2,MacIntel,120.4819277,260.5148,261.2193,3,1,0.6989,,,,,,,4,R,,3,3,0,30,3,1,,
,,,,,,,,,,1,Optimus Prime,2024-09-24_15h32.20.822,Motor_Task,2023.2.2,MacIntel,120.4819277,261.2197,261.8269,2,0,0.6042,,,,,,,2,R,,3,3,1,31,1,1,,
,,,,,,,,,,1,Optimus Prime,2024-09-24_15h32.20.822,Motor_Task,2023.2.2,MacIntel,120.4819277,261.8272,261.8699,3,0,0.0426,,,,,,,8,M,,2,3,2,32,7,1,,
,,,,,,,,,,1,Optimus Prime,2024-09-24_15h32.20.822,Motor_Task,2023.2.2,MacIntel,120.4819277,261.8701,262.6047,1,1,0.7341,,,,,,,5,I,,1,3,3,33,4,1,,
,,,,,,,,,,1,Optimus Prime,2024-09-24_15h32.20.822,Motor_Task,2023.2.2,MacIntel,120.4819277,262.605,263.1944,3,1,0.5856,,,,,,,7,R,,3,3,4,34,6,1,,
,,,,,,,,,,1,Optimus Prime,2024-09-24_15h32.20.822,Motor_Task,2023.2.2,MacIntel,120.4819277,263.1948,263.8694,1,1,0.6681,,,,,,,6,I,,1,3,5,35,5,1,,
,,,,,,,,,,1,Optimus Prime,2024-09-24_15h32.20.822,Motor_Task,2023.2.2,MacIntel,120.4819277,263.8695,264.553,2,1,0.6785,,,,,,,3,M,,2,3,6,36,2,1,,
,,,,,,,,,,1,Optimus Prime,2024-09-24_15h32.20.822,Motor_Task,2023.2.2,MacIntel,120.4819277,264.5534,265.1776,1,1,0.6226,,,,,,,10,I,,1,3,7,37,9,1,,
,,,,,,,,,,1,Optimus Prime,2024-09-24_15h32.20.822,Motor_Task,2023.2.2,MacIntel,120.4819277,265.1778,265.8277,2,1,0.6475,,,,,,,1,M,,2,3,8,38,0,1,,
,,,,,,,,,,1,Optimus Prime,2024-09-24_15h32.20.822,Motor_Task,2023.2.2,MacIntel,120.4819277,265.828,266.4192,4,1,0.5867,,,,,,,9,L,,4,3,9,39,8,1,,
,,,,,,,,,,1,Optimus Prime,2024-09-24_15h32.20.822,Motor_Task,2023.2.2,MacIntel,120.4819277,266.4195,267.2286,2,1,0.8088,,,,,,,8,M,,2,4,0,40,7,1,,
,,,,,,,,,,1,Optimus Prime,2024-09-24_15h32.20.822,Motor_Task,2023.2.2,MacIntel,120.4819277,267.2288,267.7861,3,1,0.5517,,,,,,,4,R,,3,4,1,41,3,1,,
,,,,,,,,,,1,Optimus Prime,2024-09-24_15h32.20.822,Motor_Task,2023.2.2,MacIntel,120.4819277,267.7865,268.4892,1,1,0.7024,,,,,,,5,I,,1,4,2,42,4,1,,
,,,,,,,,,,1,Optimus Prime,2024-09-24_15h32.20.822,Motor_Task,2023.2.2,MacIntel,120.4819277,268.4895,269.0694,1,1,0.5735,,,,,,,6,I,,1,4,3,43,5,1,,
,,,,,,,,,,1,Optimus Prime,2024-09-24_15h32.20.822,Motor_Task,2023.2.2,MacIntel,120.4819277,269.0698,269.7024,3,1,0.6281,,,,,,,2,R,,3,4,4,44,1,1,,
,,,,,,,,,,1,Optimus Prime,2024-09-24_15h32.20.822,Motor_Task,2023.2.2,MacIntel,120.4819277,269.7026,270.3025,1,1,0.5941,,,,,,,10,I,,1,4,5,45,9,1,,
,,,,,,,,,,1,Optimus Prime,2024-09-24_15h32.20.822,Motor_Task,2023.2.2,MacIntel,120.4819277,270.3027,271.0875,4,1,0.7846,,,,,,,9,L,,4,4,6,46,8,1,,
,,,,,,,,,,1,Optimus Prime,2024-09-24_15h32.20.822,Motor_Task,2023.2.2,MacIntel,120.4819277,271.0877,271.7442,3,1,0.6512,,,,,,,7,R,,3,4,7,47,6,1,,
,,,,,,,,,,1,Optimus Prime,2024-09-24_15h32.20.822,Motor_Task,2023.2.2,MacIntel,120.4819277,271.7443,272.4485,2,1,0.7003,,,,,,,1,M,,2,4,8,48,0,1,,
,,,,,,,,,,1,Optimus Prime,2024-09-24_15h32.20.822,Motor_Task,2023.2.2,MacIntel,120.4819277,272.4489,273.0569,2,1,0.6023,,,,,,,3,M,,2,4,9,49,2,1,,
,,,,,,,,,,1,Optimus Prime,2024-09-24_15h32.20.822,Motor_Task,2023.2.2,MacIntel,120.4819277,,,,,,,,,,,,,,,,,,,,,273.0574,277.0569