Trigger.started,Trigger.stopped,key_resp_4.keys,key_resp_4.rt,key_resp_4.duration,mouse.x,mouse.y,mouse.leftButton,mouse.midButton,mouse.rightButton,Session,Subject,date,expName,psychopyVersion,OS,frameRate,complex_block.started,complex_block.stopped,key_resp.keys,key_resp.corr,key_resp.rt,key_resp.duration,complex_block_loop.thisRepN,complex_block_loop.thisTrialN,complex_block_loop.thisN,complex_block_loop.thisIndex,complex_block_loop.ran,trial,finger,markerPos,correctResp,new_block_loop.thisRepN,new_block_loop.thisTrialN,new_block_loop.thisN,new_block_loop.thisIndex,new_block_loop.ran,endBuffer.started,endBuffer.stopped
0.0002,95.1901,1,95.1452,,0.505555612,-0.143518519,0,0,0,1,rhys!,2024-09-24_15h32.31.650,Motor_Task,2023.2.2,Win32,60.24096386,,,,,,,,,,,,,,,,,,,,,,
,,,,,,,,,,1,rhys!,2024-09-24_15h32.31.650,Motor_Task,2023.2.2,Win32,60.24096386,95.2121,95.8559,2,1,0.6311,,0,0,0,0,1,1,M,,2,,,,,,,
,,,,,,,,,,1,rhys!,2024-09-24_15h32.31.650,Motor_Task,2023.2.2,Win32,60.24096386,95.8571,96.4893,3,1,0.6261,,0,1,1,1,1,2,R,,3,,,,,,,
,,,,,,,,,,1,rhys!,2024-09-24_15h32.31.650,Motor_Task,2023.2.2,Win32,60.24096386,96.4897,97.0557,2,1,0.5624,,0,2,2,2,1,3,M,,2,,,,,,,
,,,,,,,,,,1,rhys!,2024-09-24_15h32.31.650,Motor_Task,2023.2.2,Win32,60.24096386,97.0561,97.5726,3,1,0.5099,,0,3,3,3,1,4,R,,3,,,,,,,
,,,,,,,,,,1,rhys!,2024-09-24_15h32.31.650,Motor_Task,2023.2.2,Win32,60.24096386,97.573,98.1726,1,1,0.5871,,0,4,4,4,1,5,I,,1,,,,,,,
,,,,,,,,,,1,rhys!,2024-09-24_15h32.31.650,Motor_Task,2023.2.2,Win32,60.24096386,98.173,98.7394,1,1,0.561,,0,5,5,5,1,6,I,,1,,,,,,,
,,,,,,,,,,1,rhys!,2024-09-24_15h32.31.650,Motor_Task,2023.2.2,Win32,60.24096386,98.7397,99.3557,3,1,0.6138,,0,6,6,6,1,7,R,,3,,,,,,,
,,,,,,,,,,1,rhys!,2024-09-24_15h32.31.650,Motor_Task,2023.2.2,Win32,60.24096386,99.356,99.906,2,1,0.5384,,0,7,7,7,1,8,M,,2,,,,,,,
,,,,,,,,,,1,rhys!,2024-09-24_15h32.31.650,Motor_Task,2023.2.2,Win32,60.24096386,99.9062,100.5728,4,1,0.6609,,0,8,8,8,1,9,L,,4,,,,,,,
,,,,,,,,,,1,rhys!,2024-09-24_15h32.31.650,Motor_Task,2023.2.2,Win32,60.24096386,100.5731,101.1562,1,1,0.5784,,0,9,9,9,1,10,I,,1,,,,,,,
,,,,,,,,,,1,rhys!,2024-09-24_15h32.31.650,Motor_Task,2023.2.2,Win32,60.24096386,101.1567,101.6893,1,0,0.5277,,1,0,10,0,1,1,M,,2,,,,,,,
,,,,,,,,,,1,rhys!,2024-09-24_15h32.31.650,Motor_Task,2023.2.2,Win32,60.24096386,101.6897,101.7895,2,0,0.087,,1,1,11,1,1,2,R,,3,,,,,,,
,,,,,,,,,,1,rhys!,2024-09-24_15h32.31.650,Motor_Task,2023.2.2,Win32,60.24096386,101.7899,102.3895,2,1,0.5944,,1,2,12,2,1,3,M,,2,,,,,,,
,,,,,,,,,,1,rhys!,2024-09-24_15h32.31.650,Motor_Task,2023.2.2,Win32,60.24096386,102.3899,103.0395,3,1,0.6394,,1,3,13,3,1,4,R,,3,,,,,,,
,,,,,,,,,,1,rhys!,2024-09-24_15h32.31.650,Motor_Task,2023.2.2,Win32,60.24096386,103.0398,103.6228,1,1,0.5741,,1,4,14,4,1,5,I,,1,,,,,,,
,,,,,,,,,,1,rhys!,2024-09-24_15h32.31.650,Motor_Task,2023.2.2,Win32,60.24096386,103.6231,104.2724,1,1,0.6371,,1,5,15,5,1,6,I,,1,,,,,,,
,,,,,,,,,,1,rhys!,2024-09-24_15h32.31.650,Motor_Task,2023.2.2,Win32,60.24096386,104.2728,104.9224,3,1,0.6448,,1,6,16,6,1,7,R,,3,,,,,,,
,,,,,,,,,,1,rhys!,2024-09-24_15h32.31.650,Motor_Task,2023.2.2,Win32,60.24096386,104.9227,105.439,2,1,0.5087,,1,7,17,7,1,8,M,,2,,,,,,,
,,,,,,,,,,1,rhys!,2024-09-24_15h32.31.650,Motor_Task,2023.2.2,Win32,60.24096386,105.4393,105.9729,4,1,0.526,,1,8,18,8,1,9,L,,4,,,,,,,
,,,,,,,,,,1,rhys!,2024-09-24_15h32.31.650,Motor_Task,2023.2.2,Win32,60.24096386,105.9731,106.556,1,1,0.5699,,1,9,19,9,1,10,I,,1,,,,,,,
,,,,,,,,,,1,rhys!,2024-09-24_15h32.31.650,Motor_Task,2023.2.2,Win32,60.24096386,106.5562,107.0396,2,1,0.4699,,2,0,20,0,1,1,M,,2,,,,,,,
,,,,,,,,,,1,rhys!,2024-09-24_15h32.31.650,Motor_Task,2023.2.2,Win32,60.24096386,107.0399,107.556,3,1,0.5112,,2,1,21,1,1,2,R,,3,,,,,,,
,,,,,,,,,,1,rhys!,2024-09-24_15h32.31.650,Motor_Task,2023.2.2,Win32,60.24096386,107.5562,108.0728,2,1,0.5097,,2,2,22,2,1,3,M,,2,,,,,,,
,,,,,,,,,,1,rhys!,2024-09-24_15h32.31.650,Motor_Task,2023.2.2,Win32,60.24096386,108.0731,108.6063,3,1,0.5206,,2,3,23,3,1,4,R,,3,,,,,,,
,,,,,,,,,,1,rhys!,2024-09-24_15h32.31.650,Motor_Task,2023.2.2,Win32,60.24096386,108.6065,109.1897,1,1,0.5715,,2,4,24,4,1,5,I,,1,,,,,,,
,,,,,,,,,,1,rhys!,2024-09-24_15h32.31.650,Motor_Task,2023.2.2,Win32,60.24096386,109.19,109.7224,1,1,0.531,,2,5,25,5,1,6,I,,1,,,,,,,
,,,,,,,,,,1,rhys!,2024-09-24_15h32.31.650,Motor_Task,2023.2.2,Win32,60.24096386,109.7228,110.3398,3,1,0.6082,,2,6,26,6,1,7,R,,3,,,,,,,
,,,,,,,,,,1,rhys!,2024-09-24_15h32.31.650,Motor_Task,2023.2.2,Win32,60.24096386,110.3403,110.8562,2,1,0.5026,,2,7,27,7,1,8,M,,2,,,,,,,
,,,,,,,,,,1,rhys!,2024-09-24_15h32.31.650,Motor_Task,2023.2.2,Win32,60.24096386,110.8565,111.3896,4,1,0.5269,,2,8,28,8,1,9,L,,4,,,,,,,
,,,,,,,,,,1,rhys!,2024-09-24_15h32.31.650,Motor_Task,2023.2.2,Win32,60.24096386,111.3899,111.9562,1,1,0.5619,,2,9,29,9,1,10,I,,1,,,,,,,
,,,,,,,,,,1,rhys!,2024-09-24_15h32.31.650,Motor_Task,2023.2.2,Win32,60.24096386,111.9565,112.4731,2,1,0.5042,,3,0,30,0,1,1,M,,2,,,,,,,
,,,,,,,,,,1,rhys!,2024-09-24_15h32.31.650,Motor_Task,2023.2.2,Win32,60.24096386,112.4733,112.9729,3,1,0.4903,,3,1,31,1,1,2,R,,3,,,,,,,
,,,,,,,,,,1,rhys!,2024-09-24_15h32.31.650,Motor_Task,2023.2.2,Win32,60.24096386,112.9733,113.4599,2,1,0.4861,,3,2,32,2,1,3,M,,2,,,,,,,
,,,,,,,,,,1,rhys!,2024-09-24_15h32.31.650,Motor_Task,2023.2.2,Win32,60.24096386,113.4602,113.9395,3,1,0.4673,,3,3,33,3,1,4,R,,3,,,,,,,
,,,,,,,,,,1,rhys!,2024-09-24_15h32.31.650,Motor_Task,2023.2.2,Win32,60.24096386,113.9398,114.4729,1,1,0.5296,,3,4,34,4,1,5,I,,1,,,,,,,
,,,,,,,,,,1,rhys!,2024-09-24_15h32.31.650,Motor_Task,2023.2.2,Win32,60.24096386,114.4733,114.9897,1,1,0.5103,,3,5,35,5,1,6,I,,1,,,,,,,
,,,,,,,,,,1,rhys!,2024-09-24_15h32.31.650,Motor_Task,2023.2.2,Win32,60.24096386,114.99,115.5898,3,1,0.5927,,3,6,36,6,1,7,R,,3,,,,,,,
,,,,,,,,,,1,rhys!,2024-09-24_15h32.31.650,Motor_Task,2023.2.2,Win32,60.24096386,115.5901,116.073,2,1,0.4712,,3,7,37,7,1,8,M,,2,,,,,,,
,,,,,,,,,,1,rhys!,2024-09-24_15h32.31.650,Motor_Task,2023.2.2,Win32,60.24096386,116.0732,116.5564,4,1,0.4712,,3,8,38,8,1,9,L,,4,,,,,,,
,,,,,,,,,,1,rhys!,2024-09-24_15h32.31.650,Motor_Task,2023.2.2,Win32,60.24096386,116.5566,117.106,1,1,0.5467,,3,9,39,9,1,10,I,,1,,,,,,,
,,,,,,,,,,1,rhys!,2024-09-24_15h32.31.650,Motor_Task,2023.2.2,Win32,60.24096386,117.1064,117.5726,2,1,0.4651,,4,0,40,0,1,1,M,,2,,,,,,,
,,,,,,,,,,1,rhys!,2024-09-24_15h32.31.650,Motor_Task,2023.2.2,Win32,60.24096386,117.573,118.0398,3,1,0.4563,,4,1,41,1,1,2,R,,3,,,,,,,
,,,,,,,,,,1,rhys!,2024-09-24_15h32.31.650,Motor_Task,2023.2.2,Win32,60.24096386,118.04,118.5064,2,1,0.4626,,4,2,42,2,1,3,M,,2,,,,,,,
,,,,,,,,,,1,rhys!,2024-09-24_15h32.31.650,Motor_Task,2023.2.2,Win32,60.24096386,118.5069,118.9897,3,1,0.4703,,4,3,43,3,1,4,R,,3,,,,,,,
,,,,,,,,,,1,rhys!,2024-09-24_15h32.31.650,Motor_Task,2023.2.2,Win32,60.24096386,118.9901,119.5565,1,1,0.5605,,4,4,44,4,1,5,I,,1,,,,,,,
,,,,,,,,,,1,rhys!,2024-09-24_15h32.31.650,Motor_Task,2023.2.2,Win32,60.24096386,119.5567,120.0733,1,1,0.5039,,4,5,45,5,1,6,I,,1,,,,,,,
,,,,,,,,,,1,rhys!,2024-09-24_15h32.31.650,Motor_Task,2023.2.2,Win32,60.24096386,120.0736,120.6398,3,1,0.553,,4,6,46,6,1,7,R,,3,,,,,,,
,,,,,,,,,,1,rhys!,2024-09-24_15h32.31.650,Motor_Task,2023.2.2,Win32,60.24096386,120.6401,121.0897,2,1,0.4463,,4,7,47,7,1,8,M,,2,,,,,,,
,,,,,,,,,,1,rhys!,2024-09-24_15h32.31.650,Motor_Task,2023.2.2,Win32,60.24096386,121.0901,121.6731,4,1,0.5705,,4,8,48,8,1,9,L,,4,,,,,,,
,,,,,,,,,,1,rhys!,2024-09-24_15h32.31.650,Motor_Task,2023.2.2,Win32,60.24096386,121.6734,122.2896,1,1,0.6035,,4,9,49,9,1,10,I,,1,,,,,,,
,,,,,,,,,,1,rhys!,2024-09-24_15h32.31.650,Motor_Task,2023.2.2,Win32,60.24096386,122.2898,122.7395,2,1,0.4427,,5,0,50,0,1,1,M,,2,,,,,,,
,,,,,,,,,,1,rhys!,2024-09-24_15h32.31.650,Motor_Task,2023.2.2,Win32,60.24096386,122.7398,123.2061,3,1,0.4536,,5,1,51,1,1,2,R,,3,,,,,,,
,,,,,,,,,,1,rhys!,2024-09-24_15h32.31.650,Motor_Task,2023.2.2,Win32,60.24096386,123.2065,123.6567,2,1,0.4382,,5,2,52,2,1,3,M,,2,,,,,,,
,,,,,,,,,,1,rhys!,2024-09-24_15h32.31.650,Motor_Task,2023.2.2,Win32,60.24096386,123.6573,124.0893,3,1,0.4295,,5,3,53,3,1,4,R,,3,,,,,,,
,,,,,,,,,,1,rhys!,2024-09-24_15h32.31.650,Motor_Task,2023.2.2,Win32,60.24096386,124.0896,124.6727,1,1,0.5818,,5,4,54,4,1,5,I,,1,,,,,,,
,,,,,,,,,,1,rhys!,2024-09-24_15h32.31.650,Motor_Task,2023.2.2,Win32,60.24096386,124.6731,125.2569,1,1,0.5718,,5,5,55,5,1,6,I,,1,,,,,,,
,,,,,,,,,,1,rhys!,2024-09-24_15h32.31.650,Motor_Task,2023.2.2,Win32,60.24096386,125.2572,125.8733,3,1,0.6129,,5,6,56,6,1,7,R,,3,,,,,,,
,,,,,,,,,,1,rhys!,2024-09-24_15h32.31.650,Motor_Task,2023.2.2,Win32,60.24096386,125.8736,126.3062,2,1,0.4249,,5,7,57,7,1,8,M,,2,,,,,,,
,,,,,,,,,,1,rhys!,2024-09-24_15h32.31.650,Motor_Task,2023.2.2,Win32,60.24096386,126.3065,126.794,4,1,0.4871,,5,8,58,8,1,9,L,,4,,,,,,,
,,,,,,,,,,1,rhys!,2024-09-24_15h32.31.650,Motor_Task,2023.2.2,Win32,60.24096386,126.7943,127.3899,1,1,0.583,,5,9,59,9,1,10,I,,1,,,,,,,
,,,,,,,,,,1,rhys!,2024-09-24_15h32.31.650,Motor_Task,2023.2.2,Win32,60.24096386,127.3902,127.8399,2,1,0.4492,,6,0,60,0,1,1,M,,2,,,,,,,
,,,,,,,,,,1,rhys!,2024-09-24_15h32.31.650,Motor_Task,2023.2.2,Win32,60.24096386,127.8409,128.2895,3,1,0.4458,,6,1,61,1,1,2,R,,3,,,,,,,
,,,,,,,,,,1,rhys!,2024-09-24_15h32.31.650,Motor_Task,2023.2.2,Win32,60.24096386,128.2898,128.7233,2,1,0.4301,,6,2,62,2,1,3,M,,2,,,,,,,
,,,,,,,,,,1,rhys!,2024-09-24_15h32.31.650,Motor_Task,2023.2.2,Win32,60.24096386,128.7238,129.1895,3,1,0.4539,,6,3,63,3,1,4,R,,3,,,,,,,
,,,,,,,,,,1,rhys!,2024-09-24_15h32.31.650,Motor_Task,2023.2.2,Win32,60.24096386,129.1898,129.7396,1,1,0.5477,,6,4,64,4,1,5,I,,1,,,,,,,
,,,,,,,,,,1,rhys!,2024-09-24_15h32.31.650,Motor_Task,2023.2.2,Win32,60.24096386,129.7398,130.34,1,1,0.5967,,6,5,65,5,1,6,I,,1,,,,,,,
,,,,,,,,,,1,rhys!,2024-09-24_15h32.31.650,Motor_Task,2023.2.2,Win32,60.24096386,130.3405,130.8897,3,1,0.5392,,6,6,66,6,1,7,R,,3,,,,,,,
,,,,,,,,,,1,rhys!,2024-09-24_15h32.31.650,Motor_Task,2023.2.2,Win32,60.24096386,130.89,131.3403,2,1,0.4386,,6,7,67,7,1,8,M,,2,,,,,,,
,,,,,,,,,,1,rhys!,2024-09-24_15h32.31.650,Motor_Task,2023.2.2,Win32,60.24096386,131.3407,131.9447,4,1,0.6036,,6,8,68,8,1,9,L,,4,,,,,,,
,,,,,,,,,,1,rhys!,2024-09-24_15h32.31.650,Motor_Task,2023.2.2,Win32,60.24096386,131.9451,132.49,1,1,0.5407,,6,9,69,9,1,10,I,,1,,,,,,,
,,,,,,,,,,1,rhys!,2024-09-24_15h32.31.650,Motor_Task,2023.2.2,Win32,60.24096386,132.4903,132.9401,2,1,0.4393,,7,0,70,0,1,1,M,,2,,,,,,,
,,,,,,,,,,1,rhys!,2024-09-24_15h32.31.650,Motor_Task,2023.2.2,Win32,60.24096386,132.9405,133.3731,3,1,0.4324,,7,1,71,1,1,2,R,,3,,,,,,,
,,,,,,,,,,1,rhys!,2024-09-24_15h32.31.650,Motor_Task,2023.2.2,Win32,60.24096386,133.3737,133.8566,2,1,0.4825,,7,2,72,2,1,3,M,,2,,,,,,,
,,,,,,,,,,1,rhys!,2024-09-24_15h32.31.650,Motor_Task,2023.2.2,Win32,60.24096386,133.8575,134.3061,3,1,0.4468,,7,3,73,3,1,4,R,,3,,,,,,,
,,,,,,,,,,1,rhys!,2024-09-24_15h32.31.650,Motor_Task,2023.2.2,Win32,60.24096386,134.3063,134.7895,1,1,0.4811,,7,4,74,4,1,5,I,,1,,,,,,,
,,,,,,,,,,1,rhys!,2024-09-24_15h32.31.650,Motor_Task,2023.2.2,Win32,60.24096386,134.7897,135.3734,1,1,0.5705,,7,5,75,5,1,6,I,,1,,,,,,,
,,,,,,,,,,1,rhys!,2024-09-24_15h32.31.650,Motor_Task,2023.2.2,Win32,60.24096386,135.3737,136.0229,3,1,0.6379,,7,6,76,6,1,7,R,,3,,,,,,,
,,,,,,,,,,1,rhys!,2024-09-24_15h32.31.650,Motor_Task,2023.2.2,Win32,60.24096386,136.0233,136.4732,2,1,0.4378,,7,7,77,7,1,8,M,,2,,,,,,,
,,,,,,,,,,1,rhys!,2024-09-24_15h32.31.650,Motor_Task,2023.2.2,Win32,60.24096386,136.4736,136.9233,4,1,0.4493,,7,8,78,8,1,9,L,,4,,,,,,,
,,,,,,,,,,1,rhys!,2024-09-24_15h32.31.650,Motor_Task,2023.2.2,Win32,60.24096386,136.9239,137.3902,1,1,0.4622,,7,9,79,9,1,10,I,,1,,,,,,,
,,,,,,,,,,1,rhys!,2024-09-24_15h32.31.650,Motor_Task,2023.2.2,Win32,60.24096386,137.3904,137.8731,2,1,0.4738,,8,0,80,0,1,1,M,,2,,,,,,,
,,,,,,,,,,1,rhys!,2024-09-24_15h32.31.650,Motor_Task,2023.2.2,Win32,60.24096386,137.8734,138.3233,3,1,0.4386,,8,1,81,1,1,2,R,,3,,,,,,,
,,,,,,,,,,1,rhys!,2024-09-24_15h32.31.650,Motor_Task,2023.2.2,Win32,60.24096386,138.3236,138.7732,2,1,0.437,,8,2,82,2,1,3,M,,2,,,,,,,
,,,,,,,,,,1,rhys!,2024-09-24_15h32.31.650,Motor_Task,2023.2.2,Win32,60.24096386,138.7736,139.34,3,1,0.5555,,8,3,83,3,1,4,R,,3,,,,,,,
,,,,,,,,,,1,rhys!,2024-09-24_15h32.31.650,Motor_Task,2023.2.2,Win32,60.24096386,139.3405,139.9397,1,1,0.5977,,8,4,84,4,1,5,I,,1,,,,,,,
,,,,,,,,,,1,rhys!,2024-09-24_15h32.31.650,Motor_Task,2023.2.2,Win32,60.24096386,139.94,140.5232,1,1,0.5748,,8,5,85,5,1,6,I,,1,,,,,,,
,,,,,,,,,,1,rhys!,2024-09-24_15h32.31.650,Motor_Task,2023.2.2,Win32,60.24096386,140.5235,141.1231,3,1,0.5987,,8,6,86,6,1,7,R,,3,,,,,,,
,,,,,,,,,,1,rhys!,2024-09-24_15h32.31.650,Motor_Task,2023.2.2,Win32,60.24096386,141.1233,141.5566,2,1,0.4208,,8,7,87,7,1,8,M,,2,,,,,,,
,,,,,,,,,,1,rhys!,2024-09-24_15h32.31.650,Motor_Task,2023.2.2,Win32,60.24096386,141.557,142.0066,4,1,0.4414,,8,8,88,8,1,9,L,,4,,,,,,,
,,,,,,,,,,1,rhys!,2024-09-24_15h32.31.650,Motor_Task,2023.2.2,Win32,60.24096386,142.0068,142.5732,1,1,0.554,,8,9,89,9,1,10,I,,1,,,,,,,
,,,,,,,,,,1,rhys!,2024-09-24_15h32.31.650,Motor_Task,2023.2.2,Win32,60.24096386,142.5734,143.04,2,1,0.4538,,9,0,90,0,1,1,M,,2,,,,,,,
,,,,,,,,,,1,rhys!,2024-09-24_15h32.31.650,Motor_Task,2023.2.2,Win32,60.24096386,143.0404,143.4899,3,1,0.438,,9,1,91,1,1,2,R,,3,,,,,,,
,,,,,,,,,,1,rhys!,2024-09-24_15h32.31.650,Motor_Task,2023.2.2,Win32,60.24096386,143.4901,143.9568,2,1,0.4568,,9,2,92,2,1,3,M,,2,,,,,,,
,,,,,,,,,,1,rhys!,2024-09-24_15h32.31.650,Motor_Task,2023.2.2,Win32,60.24096386,143.9571,144.4065,3,1,0.4377,,9,3,93,3,1,4,R,,3,,,,,,,
,,,,,,,,,,1,rhys!,2024-09-24_15h32.31.650,Motor_Task,2023.2.2,Win32,60.24096386,144.4069,144.861,1,1,0.4538,,9,4,94,4,1,5,I,,1,,,,,,,
,,,,,,,,,,1,rhys!,2024-09-24_15h32.31.650,Motor_Task,2023.2.2,Win32,60.24096386,144.8612,145.3732,1,1,0.4992,,9,5,95,5,1,6,I,,1,,,,,,,
,,,,,,,,,,1,rhys!,2024-09-24_15h32.31.650,Motor_Task,2023.2.2,Win32,60.24096386,145.3736,145.9399,3,1,0.5548,,9,6,96,6,1,7,R,,3,,,,,,,
,,,,,,,,,,1,rhys!,2024-09-24_15h32.31.650,Motor_Task,2023.2.2,Win32,60.24096386,145.9403,146.3734,2,1,0.4235,,9,7,97,7,1,8,M,,2,,,,,,,
,,,,,,,,,,1,rhys!,2024-09-24_15h32.31.650,Motor_Task,2023.2.2,Win32,60.24096386,146.3736,146.8069,4,1,0.4205,,9,8,98,8,1,9,L,,4,,,,,,,
,,,,,,,,,,1,rhys!,2024-09-24_15h32.31.650,Motor_Task,2023.2.2,Win32,60.24096386,146.8072,147.2567,1,1,0.4376,,9,9,99,9,1,10,I,,1,,,,,,,
,,,,,,,,,,1,rhys!,2024-09-24_15h32.31.650,Motor_Task,2023.2.2,Win32,60.24096386,147.2571,147.7231,2,1,0.4557,,10,0,100,0,1,1,M,,2,,,,,,,
,,,,,,,,,,1,rhys!,2024-09-24_15h32.31.650,Motor_Task,2023.2.2,Win32,60.24096386,147.7234,148.1615,3,1,0.4375,,10,1,101,1,1,2,R,,3,,,,,,,
,,,,,,,,,,1,rhys!,2024-09-24_15h32.31.650,Motor_Task,2023.2.2,Win32,60.24096386,148.1618,148.5733,2,1,0.3993,,10,2,102,2,1,3,M,,2,,,,,,,
,,,,,,,,,,1,rhys!,2024-09-24_15h32.31.650,Motor_Task,2023.2.2,Win32,60.24096386,148.5735,149.0065,3,1,0.4285,,10,3,103,3,1,4,R,,3,,,,,,,
,,,,,,,,,,1,rhys!,2024-09-24_15h32.31.650,Motor_Task,2023.2.2,Win32,60.24096386,149.0068,149.4566,1,1,0.4388,,10,4,104,4,1,5,I,,1,,,,,,,
,,,,,,,,,,1,rhys!,2024-09-24_15h32.31.650,Motor_Task,2023.2.2,Win32,60.24096386,149.4569,150.0566,1,1,0.588,,10,5,105,5,1,6,I,,1,,,,,,,
,,,,,,,,,,1,rhys!,2024-09-24_15h32.31.650,Motor_Task,2023.2.2,Win32,60.24096386,150.0569,150.6399,3,1,0.5818,,10,6,106,6,1,7,R,,3,,,,,,,
,,,,,,,,,,1,rhys!,2024-09-24_15h32.31.650,Motor_Task,2023.2.2,Win32,60.24096386,150.6402,151.0567,2,1,0.4047,,10,7,107,7,1,8,M,,2,,,,,,,
,,,,,,,,,,1,rhys!,2024-09-24_15h32.31.650,Motor_Task,2023.2.2,Win32,60.24096386,151.0571,151.4732,4,1,0.4072,,10,8,108,8,1,9,L,,4,,,,,,,
,,,,,,,,,,1,rhys!,2024-09-24_15h32.31.650,Motor_Task,2023.2.2,Win32,60.24096386,151.4735,151.8899,1,1,0.414,,10,9,109,9,1,10,I,,1,,,,,,,
,,,,,,,,,,1,rhys!,2024-09-24_15h32.31.650,Motor_Task,2023.2.2,Win32,60.24096386,151.8902,152.3288,2,1,0.438,,11,0,110,0,1,1,M,,2,,,,,,,
,,,,,,,,,,1,rhys!,2024-09-24_15h32.31.650,Motor_Task,2023.2.2,Win32,60.24096386,152.3291,152.7566,3,1,0.425,,11,1,111,1,1,2,R,,3,,,,,,,
,,,,,,,,,,1,rhys!,2024-09-24_15h32.31.650,Motor_Task,2023.2.2,Win32,60.24096386,152.7569,153.19,2,1,0.4245,,11,2,112,2,1,3,M,,2,,,,,,,
,,,,,,,,,,1,rhys!,2024-09-24_15h32.31.650,Motor_Task,2023.2.2,Win32,60.24096386,153.1903,153.69,3,1,0.4944,,11,3,113,3,1,4,R,,3,,,,,,,
,,,,,,,,,,1,rhys!,2024-09-24_15h32.31.650,Motor_Task,2023.2.2,Win32,60.24096386,153.6902,154.2733,1,1,0.5791,,11,4,114,4,1,5,I,,1,,,,,,,
,,,,,,,,,,1,rhys!,2024-09-24_15h32.31.650,Motor_Task,2023.2.2,Win32,60.24096386,154.2735,154.84,1,1,0.555,,11,5,115,5,1,6,I,,1,,,,,,,
,,,,,,,,,,1,rhys!,2024-09-24_15h32.31.650,Motor_Task,2023.2.2,Win32,60.24096386,154.8403,155.4734,3,1,0.6225,,11,6,116,6,1,7,R,,3,,,,,,,
,,,,,,,,,,1,rhys!,2024-09-24_15h32.31.650,Motor_Task,2023.2.2,Win32,60.24096386,155.4737,155.8899,2,1,0.4051,,11,7,117,7,1,8,M,,2,,,,,,,
,,,,,,,,,,1,rhys!,2024-09-24_15h32.31.650,Motor_Task,2023.2.2,Win32,60.24096386,155.8904,156.3234,4,1,0.4282,,11,8,118,8,1,9,L,,4,,,,,,,
,,,,,,,,,,1,rhys!,2024-09-24_15h32.31.650,Motor_Task,2023.2.2,Win32,60.24096386,156.3237,156.7733,1,1,0.4431,,11,9,119,9,1,10,I,,1,,,,,,,
,,,,,,,,,,1,rhys!,2024-09-24_15h32.31.650,Motor_Task,2023.2.2,Win32,60.24096386,156.7737,157.2123,2,1,0.4381,,12,0,120,0,1,1,M,,2,,,,,,,
,,,,,,,,,,1,rhys!,2024-09-24_15h32.31.650,Motor_Task,2023.2.2,Win32,60.24096386,157.2127,157.6901,3,1,0.4702,,12,1,121,1,1,2,R,,3,,,,,,,
,,,,,,,,,,1,rhys!,2024-09-24_15h32.31.650,Motor_Task,2023.2.2,Win32,60.24096386,157.6903,158.1566,2,1,0.456,,12,2,122,2,1,3,M,,2,,,,,,,
,,,,,,,,,,1,rhys!,2024-09-24_15h32.31.650,Motor_Task,2023.2.2,Win32,60.24096386,158.1569,158.5902,3,1,0.4327,,12,3,123,3,1,4,R,,3,,,,,,,
,,,,,,,,,,1,rhys!,2024-09-24_15h32.31.650,Motor_Task,2023.2.2,Win32,60.24096386,158.5906,159.0567,1,1,0.4619,,12,4,124,4,1,5,I,,1,,,,,,,
,,,,,,,,,,1,rhys!,2024-09-24_15h32.31.650,Motor_Task,2023.2.2,Win32,60.24096386,159.0571,159.6402,1,1,0.5714,,12,5,125,5,1,6,I,,1,,,,,,,
,,,,,,,,,,1,rhys!,2024-09-24_15h32.31.650,Motor_Task,2023.2.2,Win32,60.24096386,159.6405,160.2734,3,1,0.6209,,12,6,126,6,1,7,R,,3,,,,,,,
,,,,,,,,,,1,rhys!,2024-09-24_15h32.31.650,Motor_Task,2023.2.2,Win32,60.24096386,160.2737,160.7235,2,1,0.4379,,12,7,127,7,1,8,M,,2,,,,,,,
,,,,,,,,,,1,rhys!,2024-09-24_15h32.31.650,Motor_Task,2023.2.2,Win32,60.24096386,160.7238,161.1567,4,1,0.4205,,12,8,128,8,1,9,L,,4,,,,,,,
,,,,,,,,,,1,rhys!,2024-09-24_15h32.31.650,Motor_Task,2023.2.2,Win32,60.24096386,161.1569,161.6067,1,1,0.4379,,12,9,129,9,1,10,I,,1,,,,,,,
,,,,,,,,,,1,rhys!,2024-09-24_15h32.31.650,Motor_Task,2023.2.2,Win32,60.24096386,161.607,161.9735,2,1,0.366,,13,0,130,0,1,1,M,,2,,,,,,,
,,,,,,,,,,1,rhys!,2024-09-24_15h32.31.650,Motor_Task,2023.2.2,Win32,60.24096386,161.974,162.4068,3,1,0.4212,,13,1,131,1,1,2,R,,3,,,,,,,
,,,,,,,,,,1,rhys!,2024-09-24_15h32.31.650,Motor_Task,2023.2.2,Win32,60.24096386,162.4071,162.8401,2,1,0.4212,,13,2,132,2,1,3,M,,2,,,,,,,
,,,,,,,,,,1,rhys!,2024-09-24_15h32.31.650,Motor_Task,2023.2.2,Win32,60.24096386,162.8404,163.2568,3,1,0.4117,,13,3,133,3,1,4,R,,3,,,,,,,
,,,,,,,,,,1,rhys!,2024-09-24_15h32.31.650,Motor_Task,2023.2.2,Win32,60.24096386,163.257,163.7069,1,1,0.4431,,13,4,134,4,1,5,I,,1,,,,,,,
,,,,,,,,,,1,rhys!,2024-09-24_15h32.31.650,Motor_Task,2023.2.2,Win32,60.24096386,163.7072,164.1069,1,1,0.3879,,13,5,135,5,1,6,I,,1,,,,,,,
,,,,,,,,,,1,rhys!,2024-09-24_15h32.31.650,Motor_Task,2023.2.2,Win32,60.24096386,164.1073,164.4901,2,0,0.3785,,13,6,136,6,1,7,R,,3,,,,,,,
,,,,,,,,,,1,rhys!,2024-09-24_15h32.31.650,Motor_Task,2023.2.2,Win32,60.24096386,164.4904,165.1402,2,1,0.6397,,13,7,137,7,1,8,M,,2,,,,,,,
,,,,,,,,,,1,rhys!,2024-09-24_15h32.31.650,Motor_Task,2023.2.2,Win32,60.24096386,165.1404,165.5569,4,1,0.4038,,13,8,138,8,1,9,L,,4,,,,,,,
,,,,,,,,,,1,rhys!,2024-09-24_15h32.31.650,Motor_Task,2023.2.2,Win32,60.24096386,165.5573,165.9235,1,1,0.3585,,13,9,139,9,1,10,I,,1,,,,,,,
,,,,,,,,,,1,rhys!,2024-09-24_15h32.31.650,Motor_Task,2023.2.2,Win32,60.24096386,165.9238,166.3778,2,1,0.4537,,14,0,140,0,1,1,M,,2,,,,,,,
,,,,,,,,,,1,rhys!,2024-09-24_15h32.31.650,Motor_Task,2023.2.2,Win32,60.24096386,166.3782,166.6402,3,1,0.2503,,14,1,141,1,1,2,R,,3,,,,,,,
,,,,,,,,,,1,rhys!,2024-09-24_15h32.31.650,Motor_Task,2023.2.2,Win32,60.24096386,166.6405,166.9403,2,1,0.2973,,14,2,142,2,1,3,M,,2,,,,,,,
,,,,,,,,,,1,rhys!,2024-09-24_15h32.31.650,Motor_Task,2023.2.2,Win32,60.24096386,166.9405,167.4403,3,1,0.4874,,14,3,143,3,1,4,R,,3,,,,,,,
,,,,,,,,,,1,rhys!,2024-09-24_15h32.31.650,Motor_Task,2023.2.2,Win32,60.24096386,167.4408,167.8736,1,1,0.4201,,14,4,144,4,1,5,I,,1,,,,,,,
,,,,,,,,,,1,rhys!,2024-09-24_15h32.31.650,Motor_Task,2023.2.2,Win32,60.24096386,167.874,168.0734,1,1,0.1969,,14,5,145,5,1,6,I,,1,,,,,,,
,,,,,,,,,,1,rhys!,2024-09-24_15h32.31.650,Motor_Task,2023.2.2,Win32,60.24096386,168.0737,168.4404,2,0,0.3596,,14,6,146,6,1,7,R,,3,,,,,,,
,,,,,,,,,,1,rhys!,2024-09-24_15h32.31.650,Motor_Task,2023.2.2,Win32,60.24096386,168.4406,169.0736,2,1,0.632,,14,7,147,7,1,8,M,,2,,,,,,,
,,,,,,,,,,1,rhys!,2024-09-24_15h32.31.650,Motor_Task,2023.2.2,Win32,60.24096386,169.074,169.5403,4,1,0.4624,,14,8,148,8,1,9,L,,4,,,,,,,
,,,,,,,,,,1,rhys!,2024-09-24_15h32.31.650,Motor_Task,2023.2.2,Win32,60.24096386,169.5404,169.9787,1,1,0.4379,,14,9,149,9,1,10,I,,1,,,,,,,
,,,,,,,,,,1,rhys!,2024-09-24_15h32.31.650,Motor_Task,2023.2.2,Win32,60.24096386,169.979,170.3571,2,1,0.3731,,15,0,150,0,1,1,M,,2,,,,,,,
,,,,,,,,,,1,rhys!,2024-09-24_15h32.31.650,Motor_Task,2023.2.2,Win32,60.24096386,170.3575,170.6237,3,1,0.2614,,15,1,151,1,1,2,R,,3,,,,,,,
,,,,,,,,,,1,rhys!,2024-09-24_15h32.31.650,Motor_Task,2023.2.2,Win32,60.24096386,170.6239,171.1237,2,1,0.4877,,15,2,152,2,1,3,M,,2,,,,,,,
,,,,,,,,,,1,rhys!,2024-09-24_15h32.31.650,Motor_Task,2023.2.2,Win32,60.24096386,171.1241,171.5068,1,0,0.3809,,15,3,153,3,1,4,R,,3,,,,,,,
,,,,,,,,,,1,rhys!,2024-09-24_15h32.31.650,Motor_Task,2023.2.2,Win32,60.24096386,171.507,172.1403,1,1,0.6215,,15,4,154,4,1,5,I,,1,,,,,,,
,,,,,,,,,,1,rhys!,2024-09-24_15h32.31.650,Motor_Task,2023.2.2,Win32,60.24096386,172.1407,172.4737,1,1,0.3261,,15,5,155,5,1,6,I,,1,,,,,,,
,,,,,,,,,,1,rhys!,2024-09-24_15h32.31.650,Motor_Task,2023.2.2,Win32,60.24096386,172.4739,173.0571,3,1,0.577,,15,6,156,6,1,7,R,,3,,,,,,,
,,,,,,,,,,1,rhys!,2024-09-24_15h32.31.650,Motor_Task,2023.2.2,Win32,60.24096386,173.0573,173.5237,2,1,0.4569,,15,7,157,7,1,8,M,,2,,,,,,,
,,,,,,,,,,1,rhys!,2024-09-24_15h32.31.650,Motor_Task,2023.2.2,Win32,60.24096386,173.524,173.9069,4,1,0.3728,,15,8,158,8,1,9,L,,4,,,,,,,
,,,,,,,,,,1,rhys!,2024-09-24_15h32.31.650,Motor_Task,2023.2.2,Win32,60.24096386,173.9073,174.357,1,1,0.448,,15,9,159,9,1,10,I,,1,,,,,,,
,,,,,,,,,,1,rhys!,2024-09-24_15h32.31.650,Motor_Task,2023.2.2,Win32,60.24096386,174.3572,174.7237,2,1,0.3608,,16,0,160,0,1,1,M,,2,,,,,,,
,,,,,,,,,,1,rhys!,2024-09-24_15h32.31.650,Motor_Task,2023.2.2,Win32,60.24096386,174.724,175.0237,3,1,0.2908,,16,1,161,1,1,2,R,,3,,,,,,,
,,,,,,,,,,1,rhys!,2024-09-24_15h32.31.650,Motor_Task,2023.2.2,Win32,60.24096386,175.024,175.4072,2,1,0.3707,,16,2,162,2,1,3,M,,2,,,,,,,
,,,,,,,,,,1,rhys!,2024-09-24_15h32.31.650,Motor_Task,2023.2.2,Win32,60.24096386,175.4075,175.8903,3,1,0.4733,,16,3,163,3,1,4,R,,3,,,,,,,
,,,,,,,,,,1,rhys!,2024-09-24_15h32.31.650,Motor_Task,2023.2.2,Win32,60.24096386,175.8906,176.307,1,1,0.4132,,16,4,164,4,1,5,I,,1,,,,,,,
,,,,,,,,,,1,rhys!,2024-09-24_15h32.31.650,Motor_Task,2023.2.2,Win32,60.24096386,176.3072,176.6071,1,1,0.2937,,16,5,165,5,1,6,I,,1,,,,,,,
,,,,,,,,,,1,rhys!,2024-09-24_15h32.31.650,Motor_Task,2023.2.2,Win32,60.24096386,176.6074,176.9403,2,0,0.3309,,16,6,166,6,1,7,R,,3,,,,,,,
,,,,,,,,,,1,rhys!,2024-09-24_15h32.31.650,Motor_Task,2023.2.2,Win32,60.24096386,176.9407,177.6905,2,1,0.7485,,16,7,167,7,1,8,M,,2,,,,,,,
,,,,,,,,,,1,rhys!,2024-09-24_15h32.31.650,Motor_Task,2023.2.2,Win32,60.24096386,177.6909,178.057,4,1,0.3552,,16,8,168,8,1,9,L,,4,,,,,,,
,,,,,,,,,,1,rhys!,2024-09-24_15h32.31.650,Motor_Task,2023.2.2,Win32,60.24096386,178.0573,178.4905,1,1,0.4212,,16,9,169,9,1,10,I,,1,,,,,,,
,,,,,,,,,,1,rhys!,2024-09-24_15h32.31.650,Motor_Task,2023.2.2,Win32,60.24096386,178.4909,178.9571,2,1,0.4538,,17,0,170,0,1,1,M,,2,,,,,,,
,,,,,,,,,,1,rhys!,2024-09-24_15h32.31.650,Motor_Task,2023.2.2,Win32,60.24096386,178.9574,179.2572,3,1,0.2875,,17,1,171,1,1,2,R,,3,,,,,,,
,,,,,,,,,,1,rhys!,2024-09-24_15h32.31.650,Motor_Task,2023.2.2,Win32,60.24096386,179.2575,179.7238,2,1,0.4582,,17,2,172,2,1,3,M,,2,,,,,,,
,,,,,,,,,,1,rhys!,2024-09-24_15h32.31.650,Motor_Task,2023.2.2,Win32,60.24096386,179.724,180.1071,1,0,0.3815,,17,3,173,3,1,4,R,,3,,,,,,,
,,,,,,,,,,1,rhys!,2024-09-24_15h32.31.650,Motor_Task,2023.2.2,Win32,60.24096386,180.1075,180.7787,1,1,0.6709,,17,4,174,4,1,5,I,,1,,,,,,,
,,,,,,,,,,1,rhys!,2024-09-24_15h32.31.650,Motor_Task,2023.2.2,Win32,60.24096386,180.7789,181.2072,1,1,0.416,,17,5,175,5,1,6,I,,1,,,,,,,
,,,,,,,,,,1,rhys!,2024-09-24_15h32.31.650,Motor_Task,2023.2.2,Win32,60.24096386,181.2075,181.7738,3,1,0.5597,,17,6,176,6,1,7,R,,3,,,,,,,
,,,,,,,,,,1,rhys!,2024-09-24_15h32.31.650,Motor_Task,2023.2.2,Win32,60.24096386,181.7741,182.1905,2,1,0.4111,,17,7,177,7,1,8,M,,2,,,,,,,
,,,,,,,,,,1,rhys!,2024-09-24_15h32.31.650,Motor_Task,2023.2.2,Win32,60.24096386,182.1908,182.5603,4,1,0.3692,,17,8,178,8,1,9,L,,4,,,,,,,
,,,,,,,,,,1,rhys!,2024-09-24_15h32.31.650,Motor_Task,2023.2.2,Win32,60.24096386,182.5607,182.9905,1,1,0.4201,,17,9,179,9,1,10,I,,1,,,,,,,
,,,,,,,,,,1,rhys!,2024-09-24_15h32.31.650,Motor_Task,2023.2.2,Win32,60.24096386,182.9909,183.4072,2,1,0.404,,18,0,180,0,1,1,M,,2,,,,,,,
,,,,,,,,,,1,rhys!,2024-09-24_15h32.31.650,Motor_Task,2023.2.2,Win32,60.24096386,183.4075,183.7906,3,1,0.379,,18,1,181,1,1,2,R,,3,,,,,,,
,,,,,,,,,,1,rhys!,2024-09-24_15h32.31.650,Motor_Task,2023.2.2,Win32,60.24096386,183.7909,184.2408,2,1,0.4386,,18,2,182,2,1,3,M,,2,,,,,,,
,,,,,,,,,,1,rhys!,2024-09-24_15h32.31.650,Motor_Task,2023.2.2,Win32,60.24096386,184.2411,184.7239,4,0,0.4817,,18,3,183,3,1,4,R,,3,,,,,,,
,,,,,,,,,,1,rhys!,2024-09-24_15h32.31.650,Motor_Task,2023.2.2,Win32,60.24096386,184.7242,185.3406,1,1,0.6051,,18,4,184,4,1,5,I,,1,,,,,,,
,,,,,,,,,,1,rhys!,2024-09-24_15h32.31.650,Motor_Task,2023.2.2,Win32,60.24096386,185.3409,185.8124,1,1,0.4712,,18,5,185,5,1,6,I,,1,,,,,,,
,,,,,,,,,,1,rhys!,2024-09-24_15h32.31.650,Motor_Task,2023.2.2,Win32,60.24096386,185.8127,186.4409,3,1,0.6174,,18,6,186,6,1,7,R,,3,,,,,,,
,,,,,,,,,,1,rhys!,2024-09-24_15h32.31.650,Motor_Task,2023.2.2,Win32,60.24096386,186.4413,186.8741,2,1,0.421,,18,7,187,7,1,8,M,,2,,,,,,,
,,,,,,,,,,1,rhys!,2024-09-24_15h32.31.650,Motor_Task,2023.2.2,Win32,60.24096386,186.8744,187.324,4,1,0.4426,,18,8,188,8,1,9,L,,4,,,,,,,
,,,,,,,,,,1,rhys!,2024-09-24_15h32.31.650,Motor_Task,2023.2.2,Win32,60.24096386,187.3243,187.724,1,1,0.3876,,18,9,189,9,1,10,I,,1,,,,,,,
,,,,,,,,,,1,rhys!,2024-09-24_15h32.31.650,Motor_Task,2023.2.2,Win32,60.24096386,187.7242,188.1073,2,1,0.3725,,19,0,190,0,1,1,M,,2,,,,,,,
,,,,,,,,,,1,rhys!,2024-09-24_15h32.31.650,Motor_Task,2023.2.2,Win32,60.24096386,188.1076,188.3907,3,1,0.2811,,19,1,191,1,1,2,R,,3,,,,,,,
,,,,,,,,,,1,rhys!,2024-09-24_15h32.31.650,Motor_Task,2023.2.2,Win32,60.24096386,188.391,188.7962,2,1,0.4047,,19,2,192,2,1,3,M,,2,,,,,,,
,,,,,,,,,,1,rhys!,2024-09-24_15h32.31.650,Motor_Task,2023.2.2,Win32,60.24096386,188.7966,189.3239,3,1,0.5238,,19,3,193,3,1,4,R,,3,,,,,,,
,,,,,,,,,,1,rhys!,2024-09-24_15h32.31.650,Motor_Task,2023.2.2,Win32,60.24096386,189.3243,189.7239,1,1,0.3939,,19,4,194,4,1,5,I,,1,,,,,,,
,,,,,,,,,,1,rhys!,2024-09-24_15h32.31.650,Motor_Task,2023.2.2,Win32,60.24096386,189.7243,190.0573,1,1,0.3313,,19,5,195,5,1,6,I,,1,,,,,,,
,,,,,,,,,,1,rhys!,2024-09-24_15h32.31.650,Motor_Task,2023.2.2,Win32,60.24096386,190.0576,190.4574,2,0,0.3958,,19,6,196,6,1,7,R,,3,,,,,,,
,,,,,,,,,,1,rhys!,2024-09-24_15h32.31.650,Motor_Task,2023.2.2,Win32,60.24096386,190.4577,191.024,2,1,0.5597,,19,7,197,7,1,8,M,,2,,,,,,,
,,,,,,,,,,1,rhys!,2024-09-24_15h32.31.650,Motor_Task,2023.2.2,Win32,60.24096386,191.0243,191.7408,4,1,0.7082,,19,8,198,8,1,9,L,,4,,,,,,,
,,,,,,,,,,1,rhys!,2024-09-24_15h32.31.650,Motor_Task,2023.2.2,Win32,60.24096386,191.7411,192.141,1,1,0.3995,,19,9,199,9,1,10,I,,1,,,,,,,
,,,,,,,,,,1,rhys!,2024-09-24_15h32.31.650,Motor_Task,2023.2.2,Win32,60.24096386,192.1564,192.7573,1,1,0.594,,,,,,,10,I,,1,0,0,0,9,1,,
,,,,,,,,,,1,rhys!,2024-09-24_15h32.31.650,Motor_Task,2023.2.2,Win32,60.24096386,192.7578,193.3408,1,1,0.5808,,,,,,,5,I,,1,0,1,1,4,1,,
,,,,,,,,,,1,rhys!,2024-09-24_15h32.31.650,Motor_Task,2023.2.2,Win32,60.24096386,193.341,194.0075,4,1,0.6551,,,,,,,9,L,,4,0,2,2,8,1,,
,,,,,,,,,,1,rhys!,2024-09-24_15h32.31.650,Motor_Task,2023.2.2,Win32,60.24096386,194.0078,194.6742,3,1,0.6555,,,,,,,4,R,,3,0,3,3,3,1,,
,,,,,,,,,,1,rhys!,2024-09-24_15h32.31.650,Motor_Task,2023.2.2,Win32,60.24096386,194.6745,195.1743,2,1,0.4884,,,,,,,1,M,,2,0,4,4,0,1,,
,,,,,,,,,,1,rhys!,2024-09-24_15h32.31.650,Motor_Task,2023.2.2,Win32,60.24096386,195.1746,195.7408,2,1,0.5549,,,,,,,8,M,,2,0,5,5,7,1,,
,,,,,,,,,,1,rhys!,2024-09-24_15h32.31.650,Motor_Task,2023.2.2,Win32,60.24096386,195.7412,196.3242,3,1,0.5734,,,,,,,7,R,,3,0,6,6,6,1,,
,,,,,,,,,,1,rhys!,2024-09-24_15h32.31.650,Motor_Task,2023.2.2,Win32,60.24096386,196.3245,197.0076,3,1,0.6719,,,,,,,2,R,,3,0,7,7,1,1,,
,,,,,,,,,,1,rhys!,2024-09-24_15h32.31.650,Motor_Task,2023.2.2,Win32,60.24096386,197.008,197.6077,1,1,0.5883,,,,,,,6,I,,1,0,8,8,5,1,,
,,,,,,,,,,1,rhys!,2024-09-24_15h32.31.650,Motor_Task,2023.2.2,Win32,60.24096386,197.608,198.1075,2,1,0.4897,,,,,,,3,M,,2,0,9,9,2,1,,
,,,,,,,,,,1,rhys!,2024-09-24_15h32.31.650,Motor_Task,2023.2.2,Win32,60.24096386,198.1077,198.7302,1,1,0.622,,,,,,,6,I,,1,1,0,10,5,1,,
,,,,,,,,,,1,rhys!,2024-09-24_15h32.31.650,Motor_Task,2023.2.2,Win32,60.24096386,198.7306,199.3743,4,1,0.6318,,,,,,,9,L,,4,1,1,11,8,1,,
,,,,,,,,,,1,rhys!,2024-09-24_15h32.31.650,Motor_Task,2023.2.2,Win32,60.24096386,199.3747,200.0577,3,1,0.6719,,,,,,,7,R,,3,1,2,12,6,1,,
,,,,,,,,,,1,rhys!,2024-09-24_15h32.31.650,Motor_Task,2023.2.2,Win32,60.24096386,200.058,200.791,3,1,0.7221,,,,,,,4,R,,3,1,3,13,3,1,,
,,,,,,,,,,1,rhys!,2024-09-24_15h32.31.650,Motor_Task,2023.2.2,Win32,60.24096386,200.7914,201.291,2,1,0.4886,,,,,,,8,M,,2,1,4,14,7,1,,
,,,,,,,,,,1,rhys!,2024-09-24_15h32.31.650,Motor_Task,2023.2.2,Win32,60.24096386,201.2914,201.8077,1,1,0.5045,,,,,,,5,I,,1,1,5,15,4,1,,
,,,,,,,,,,1,rhys!,2024-09-24_15h32.31.650,Motor_Task,2023.2.2,Win32,60.24096386,201.808,202.3077,3,1,0.4988,,,,,,,2,R,,3,1,6,16,1,1,,
,,,,,,,,,,1,rhys!,2024-09-24_15h32.31.650,Motor_Task,2023.2.2,Win32,60.24096386,202.3081,202.7411,2,1,0.4216,,,,,,,3,M,,2,1,7,17,2,1,,
,,,,,,,,,,1,rhys!,2024-09-24_15h32.31.650,Motor_Task,2023.2.2,Win32,60.24096386,202.7414,203.3244,1,1,0.5724,,,,,,,10,I,,1,1,8,18,9,1,,
,,,,,,,,,,1,rhys!,2024-09-24_15h32.31.650,Motor_Task,2023.2.2,Win32,60.24096386,203.3248,203.891,2,1,0.5632,,,,,,,1,M,,2,1,9,19,0,1,,
,,,,,,,,,,1,rhys!,2024-09-24_15h32.31.650,Motor_Task,2023.2.2,Win32,60.24096386,203.8914,204.491,1,1,0.5909,,,,,,,6,I,,1,2,0,20,5,1,,
,,,,,,,,,,1,rhys!,2024-09-24_15h32.31.650,Motor_Task,2023.2.2,Win32,60.24096386,204.4913,205.0577,1,1,0.5651,,,,,,,10,I,,1,2,1,21,9,1,,
,,,,,,,,,,1,rhys!,2024-09-24_15h32.31.650,Motor_Task,2023.2.2,Win32,60.24096386,205.058,205.5744,2,1,0.5066,,,,,,,3,M,,2,2,2,22,2,1,,
,,,,,,,,,,1,rhys!,2024-09-24_15h32.31.650,Motor_Task,2023.2.2,Win32,60.24096386,205.5747,206.1911,3,1,0.6146,,,,,,,4,R,,3,2,3,23,3,1,,
,,,,,,,,,,1,rhys!,2024-09-24_15h32.31.650,Motor_Task,2023.2.2,Win32,60.24096386,206.1914,206.8077,2,1,0.6068,,,,,,,8,M,,2,2,4,24,7,1,,
,,,,,,,,,,1,rhys!,2024-09-24_15h32.31.650,Motor_Task,2023.2.2,Win32,60.24096386,206.808,207.3583,3,1,0.5499,,,,,,,2,R,,3,2,5,25,1,1,,
,,,,,,,,,,1,rhys!,2024-09-24_15h32.31.650,Motor_Task,2023.2.2,Win32,60.24096386,207.3591,207.9744,3,1,0.6033,,,,,,,7,R,,3,2,6,26,6,1,,
,,,,,,,,,,1,rhys!,2024-09-24_15h32.31.650,Motor_Task,2023.2.2,Win32,60.24096386,207.9747,208.4912,4,1,0.5061,,,,,,,9,L,,4,2,7,27,8,1,,
,,,,,,,,,,1,rhys!,2024-09-24_15h32.31.650,Motor_Task,2023.2.2,Win32,60.24096386,208.4915,209.0911,2,1,0.5929,,,,,,,1,M,,2,2,8,28,0,1,,
,,,,,,,,,,1,rhys!,2024-09-24_15h32.31.650,Motor_Task,2023.2.2,Win32,60.24096386,209.0914,209.5783,1,1,0.4865,,,,,,,5,I,,1,2,9,29,4,1,,
,,,,,,,,,,1,rhys!,2024-09-24_15h32.31.650,Motor_Task,2023.2.2,Win32,60.24096386,209.5786,210.2079,2,1,0.6186,,,,,,,1,M,,2,3,0,30,0,1,,
,,,,,,,,,,1,rhys!,2024-09-24_15h32.31.650,Motor_Task,2023.2.2,Win32,60.24096386,210.2083,210.7578,2,1,0.5381,,,,,,,3,M,,2,3,1,31,2,1,,
,,,,,,,,,,1,rhys!,2024-09-24_15h32.31.650,Motor_Task,2023.2.2,Win32,60.24096386,210.7581,211.3411,1,1,0.5824,,,,,,,10,I,,1,3,2,32,9,1,,
,,,,,,,,,,1,rhys!,2024-09-24_15h32.31.650,Motor_Task,2023.2.2,Win32,60.24096386,211.3415,211.8744,3,1,0.5223,,,,,,,2,R,,3,3,3,33,1,1,,
,,,,,,,,,,1,rhys!,2024-09-24_15h32.31.650,Motor_Task,2023.2.2,Win32,60.24096386,211.8747,212.5078,4,1,0.6289,,,,,,,9,L,,4,3,4,34,8,1,,
,,,,,,,,,,1,rhys!,2024-09-24_15h32.31.650,Motor_Task,2023.2.2,Win32,60.24096386,212.5082,213.1082,3,1,0.5997,,,,,,,4,R,,3,3,5,35,3,1,,
,,,,,,,,,,1,rhys!,2024-09-24_15h32.31.650,Motor_Task,2023.2.2,Win32,60.24096386,213.1088,213.7413,1,1,0.6287,,,,,,,5,I,,1,3,6,36,4,1,,
,,,,,,,,,,1,rhys!,2024-09-24_15h32.31.650,Motor_Task,2023.2.2,Win32,60.24096386,213.7417,214.3245,1,1,0.5794,,,,,,,6,I,,1,3,7,37,5,1,,
,,,,,,,,,,1,rhys!,2024-09-24_15h32.31.650,Motor_Task,2023.2.2,Win32,60.24096386,214.3247,214.9412,3,1,0.6059,,,,,,,7,R,,3,3,8,38,6,1,,
,,,,,,,,,,1,rhys!,2024-09-24_15h32.31.650,Motor_Task,2023.2.2,Win32,60.24096386,214.9416,215.3749,2,1,0.4327,,,,,,,8,M,,2,3,9,39,7,1,,
,,,,,,,,,,1,rhys!,2024-09-24_15h32.31.650,Motor_Task,2023.2.2,Win32,60.24096386,215.3758,215.8412,4,1,0.4533,,,,,,,9,L,,4,4,0,40,8,1,,
,,,,,,,,,,1,rhys!,2024-09-24_15h32.31.650,Motor_Task,2023.2.2,Win32,60.24096386,215.8416,216.3413,1,1,0.4989,,,,,,,5,I,,1,4,1,41,4,1,,
,,,,,,,,,,1,rhys!,2024-09-24_15h32.31.650,Motor_Task,2023.2.2,Win32,60.24096386,216.3417,216.8578,1,1,0.5072,,,,,,,6,I,,1,4,2,42,5,1,,
,,,,,,,,,,1,rhys!,2024-09-24_15h32.31.650,Motor_Task,2023.2.2,Win32,60.24096386,216.8581,217.3306,2,1,0.472,,,,,,,1,M,,2,4,3,43,0,1,,
,,,,,,,,,,1,rhys!,2024-09-24_15h32.31.650,Motor_Task,2023.2.2,Win32,60.24096386,217.3309,217.7748,3,1,0.4347,,,,,,,2,R,,3,4,4,44,1,1,,
,,,,,,,,,,1,rhys!,2024-09-24_15h32.31.650,Motor_Task,2023.2.2,Win32,60.24096386,217.7751,218.2248,2,1,0.4386,,,,,,,3,M,,2,4,5,45,2,1,,
,,,,,,,,,,1,rhys!,2024-09-24_15h32.31.650,Motor_Task,2023.2.2,Win32,60.24096386,218.2251,218.8413,1,1,0.6129,,,,,,,10,I,,1,4,6,46,9,1,,
,,,,,,,,,,1,rhys!,2024-09-24_15h32.31.650,Motor_Task,2023.2.2,Win32,60.24096386,218.8417,219.4112,3,1,0.569,,,,,,,7,R,,3,4,7,47,6,1,,
,,,,,,,,,,1,rhys!,2024-09-24_15h32.31.650,Motor_Task,2023.2.2,Win32,60.24096386,219.4115,220.058,3,1,0.6355,,,,,,,4,R,,3,4,8,48,3,1,,
,,,,,,,,,,1,rhys!,2024-09-24_15h32.31.650,Motor_Task,2023.2.2,Win32,60.24096386,220.0583,220.608,2,1,0.547,,,,,,,8,M,,2,4,9,49,7,1,,
,,,,,,,,,,1,rhys!,2024-09-24_15h32.31.650,Motor_Task,2023.2.2,Win32,60.24096386,,,,,,,,,,,,,,,,,,,,,220.6083,224.6083