Trigger.started,Trigger.stopped,key_resp_4.keys,key_resp_4.rt,key_resp_4.duration,mouse.x,mouse.y,mouse.leftButton,mouse.midButton,mouse.rightButton,Session,Subject,date,expName,psychopyVersion,OS,frameRate,complex_block.started,complex_block.stopped,key_resp.keys,key_resp.corr,key_resp.rt,key_resp.duration,complex_block_loop.thisRepN,complex_block_loop.thisTrialN,complex_block_loop.thisN,complex_block_loop.thisIndex,complex_block_loop.ran,trial,finger,markerPos,correctResp,new_block_loop.thisRepN,new_block_loop.thisTrialN,new_block_loop.thisN,new_block_loop.thisIndex,new_block_loop.ran,endBuffer.started,endBuffer.stopped
0.0002,107.2605,space,107.2361,,-0.410474694,-0.071883492,0,0,0,1,Tobey,2024-09-24_15h32.23.257,Motor_Task,2023.2.2,MacIntel,62.11180124,,,,,,,,,,,,,,,,,,,,,,
,,,,,,,,,,1,Tobey,2024-09-24_15h32.23.257,Motor_Task,2023.2.2,MacIntel,62.11180124,107.2847,108.2935,2,1,1.0072,,0,0,0,0,1,1,M,,2,,,,,,,
,,,,,,,,,,1,Tobey,2024-09-24_15h32.23.257,Motor_Task,2023.2.2,MacIntel,62.11180124,108.2942,109.1095,3,1,0.8027,,0,1,1,1,1,2,R,,3,,,,,,,
,,,,,,,,,,1,Tobey,2024-09-24_15h32.23.257,Motor_Task,2023.2.2,MacIntel,62.11180124,109.1101,110.0425,2,1,0.9316,,0,2,2,2,1,3,M,,2,,,,,,,
,,,,,,,,,,1,Tobey,2024-09-24_15h32.23.257,Motor_Task,2023.2.2,MacIntel,62.11180124,110.0429,110.6762,3,1,0.6214,,0,3,3,3,1,4,R,,3,,,,,,,
,,,,,,,,,,1,Tobey,2024-09-24_15h32.23.257,Motor_Task,2023.2.2,MacIntel,62.11180124,110.6769,111.5261,1,1,0.8362,,0,4,4,4,1,5,I,,1,,,,,,,
,,,,,,,,,,1,Tobey,2024-09-24_15h32.23.257,Motor_Task,2023.2.2,MacIntel,62.11180124,111.5268,112.1428,1,1,0.604,,0,5,5,5,1,6,I,,1,,,,,,,
,,,,,,,,,,1,Tobey,2024-09-24_15h32.23.257,Motor_Task,2023.2.2,MacIntel,62.11180124,112.1434,113.0596,4,0,0.9044,,0,6,6,6,1,7,R,,3,,,,,,,
,,,,,,,,,,1,Tobey,2024-09-24_15h32.23.257,Motor_Task,2023.2.2,MacIntel,62.11180124,113.06,113.9919,2,1,0.9212,,0,7,7,7,1,8,M,,2,,,,,,,
,,,,,,,,,,1,Tobey,2024-09-24_15h32.23.257,Motor_Task,2023.2.2,MacIntel,62.11180124,113.9923,114.8418,4,1,0.8373,,0,8,8,8,1,9,L,,4,,,,,,,
,,,,,,,,,,1,Tobey,2024-09-24_15h32.23.257,Motor_Task,2023.2.2,MacIntel,62.11180124,114.8423,115.8752,1,1,1.0218,,0,9,9,9,1,10,I,,1,,,,,,,
,,,,,,,,,,1,Tobey,2024-09-24_15h32.23.257,Motor_Task,2023.2.2,MacIntel,62.11180124,115.8759,116.6928,2,1,0.8037,,1,0,10,0,1,1,M,,2,,,,,,,
,,,,,,,,,,1,Tobey,2024-09-24_15h32.23.257,Motor_Task,2023.2.2,MacIntel,62.11180124,116.6934,117.542,3,1,0.8375,,1,1,11,1,1,2,R,,3,,,,,,,
,,,,,,,,,,1,Tobey,2024-09-24_15h32.23.257,Motor_Task,2023.2.2,MacIntel,62.11180124,117.5425,118.3929,2,1,0.8366,,1,2,12,2,1,3,M,,2,,,,,,,
,,,,,,,,,,1,Tobey,2024-09-24_15h32.23.257,Motor_Task,2023.2.2,MacIntel,62.11180124,118.3937,118.9918,3,1,0.5873,,1,3,13,3,1,4,R,,3,,,,,,,
,,,,,,,,,,1,Tobey,2024-09-24_15h32.23.257,Motor_Task,2023.2.2,MacIntel,62.11180124,118.9922,119.7917,1,1,0.7893,,1,4,14,4,1,5,I,,1,,,,,,,
,,,,,,,,,,1,Tobey,2024-09-24_15h32.23.257,Motor_Task,2023.2.2,MacIntel,62.11180124,119.7921,120.4927,1,1,0.688,,1,5,15,5,1,6,I,,1,,,,,,,
,,,,,,,,,,1,Tobey,2024-09-24_15h32.23.257,Motor_Task,2023.2.2,MacIntel,62.11180124,120.4931,121.4254,3,1,0.9204,,1,6,16,6,1,7,R,,3,,,,,,,
,,,,,,,,,,1,Tobey,2024-09-24_15h32.23.257,Motor_Task,2023.2.2,MacIntel,62.11180124,121.4259,122.1924,2,1,0.766,,1,7,17,7,1,8,M,,2,,,,,,,
,,,,,,,,,,1,Tobey,2024-09-24_15h32.23.257,Motor_Task,2023.2.2,MacIntel,62.11180124,122.1929,123.0762,4,1,0.8707,,1,8,18,8,1,9,L,,4,,,,,,,
,,,,,,,,,,1,Tobey,2024-09-24_15h32.23.257,Motor_Task,2023.2.2,MacIntel,62.11180124,123.0768,123.7585,1,1,0.6804,,1,9,19,9,1,10,I,,1,,,,,,,
,,,,,,,,,,1,Tobey,2024-09-24_15h32.23.257,Motor_Task,2023.2.2,MacIntel,62.11180124,123.7589,124.476,2,1,0.714,,2,0,20,0,1,1,M,,2,,,,,,,
,,,,,,,,,,1,Tobey,2024-09-24_15h32.23.257,Motor_Task,2023.2.2,MacIntel,62.11180124,124.4764,125.1927,3,1,0.7073,,2,1,21,1,1,2,R,,3,,,,,,,
,,,,,,,,,,1,Tobey,2024-09-24_15h32.23.257,Motor_Task,2023.2.2,MacIntel,62.11180124,125.1931,126.2252,2,1,1.022,,2,2,22,2,1,3,M,,2,,,,,,,
,,,,,,,,,,1,Tobey,2024-09-24_15h32.23.257,Motor_Task,2023.2.2,MacIntel,62.11180124,126.2257,127.0934,3,1,0.8671,,2,3,23,3,1,4,R,,3,,,,,,,
,,,,,,,,,,1,Tobey,2024-09-24_15h32.23.257,Motor_Task,2023.2.2,MacIntel,62.11180124,127.0939,127.742,1,1,0.636,,2,4,24,4,1,5,I,,1,,,,,,,
,,,,,,,,,,1,Tobey,2024-09-24_15h32.23.257,Motor_Task,2023.2.2,MacIntel,62.11180124,127.7425,128.4756,1,1,0.72,,2,5,25,5,1,6,I,,1,,,,,,,
,,,,,,,,,,1,Tobey,2024-09-24_15h32.23.257,Motor_Task,2023.2.2,MacIntel,62.11180124,128.4757,129.3426,3,1,0.8547,,2,6,26,6,1,7,R,,3,,,,,,,
,,,,,,,,,,1,Tobey,2024-09-24_15h32.23.257,Motor_Task,2023.2.2,MacIntel,62.11180124,129.3431,130.1758,2,1,0.8201,,2,7,27,7,1,8,M,,2,,,,,,,
,,,,,,,,,,1,Tobey,2024-09-24_15h32.23.257,Motor_Task,2023.2.2,MacIntel,62.11180124,130.1761,131.1923,4,1,1.0074,,2,8,28,8,1,9,L,,4,,,,,,,
,,,,,,,,,,1,Tobey,2024-09-24_15h32.23.257,Motor_Task,2023.2.2,MacIntel,62.11180124,131.1927,131.8926,1,1,0.6873,,2,9,29,9,1,10,I,,1,,,,,,,
,,,,,,,,,,1,Tobey,2024-09-24_15h32.23.257,Motor_Task,2023.2.2,MacIntel,62.11180124,131.8931,132.6594,2,1,0.7528,,3,0,30,0,1,1,M,,2,,,,,,,
,,,,,,,,,,1,Tobey,2024-09-24_15h32.23.257,Motor_Task,2023.2.2,MacIntel,62.11180124,132.66,133.4613,3,1,0.7911,,3,1,31,1,1,2,R,,3,,,,,,,
,,,,,,,,,,1,Tobey,2024-09-24_15h32.23.257,Motor_Task,2023.2.2,MacIntel,62.11180124,133.4617,134.3426,2,1,0.8687,,3,2,32,2,1,3,M,,2,,,,,,,
,,,,,,,,,,1,Tobey,2024-09-24_15h32.23.257,Motor_Task,2023.2.2,MacIntel,62.11180124,134.3431,135.0797,3,1,0.7361,,3,3,33,3,1,4,R,,3,,,,,,,
,,,,,,,,,,1,Tobey,2024-09-24_15h32.23.257,Motor_Task,2023.2.2,MacIntel,62.11180124,135.08,135.8094,1,1,0.7168,,3,4,34,4,1,5,I,,1,,,,,,,
,,,,,,,,,,1,Tobey,2024-09-24_15h32.23.257,Motor_Task,2023.2.2,MacIntel,62.11180124,135.8101,136.4095,1,1,0.5866,,3,5,35,5,1,6,I,,1,,,,,,,
,,,,,,,,,,1,Tobey,2024-09-24_15h32.23.257,Motor_Task,2023.2.2,MacIntel,62.11180124,136.4101,137.3597,3,1,0.9484,,3,6,36,6,1,7,R,,3,,,,,,,
,,,,,,,,,,1,Tobey,2024-09-24_15h32.23.257,Motor_Task,2023.2.2,MacIntel,62.11180124,137.3603,138.2426,2,1,0.8703,,3,7,37,7,1,8,M,,2,,,,,,,
,,,,,,,,,,1,Tobey,2024-09-24_15h32.23.257,Motor_Task,2023.2.2,MacIntel,62.11180124,138.2432,139.209,4,1,0.9651,,3,8,38,8,1,9,L,,4,,,,,,,
,,,,,,,,,,1,Tobey,2024-09-24_15h32.23.257,Motor_Task,2023.2.2,MacIntel,62.11180124,139.2094,139.8582,1,1,0.6375,,3,9,39,9,1,10,I,,1,,,,,,,
,,,,,,,,,,1,Tobey,2024-09-24_15h32.23.257,Motor_Task,2023.2.2,MacIntel,62.11180124,139.8588,140.7088,2,1,0.8393,,4,0,40,0,1,1,M,,2,,,,,,,
,,,,,,,,,,1,Tobey,2024-09-24_15h32.23.257,Motor_Task,2023.2.2,MacIntel,62.11180124,140.7094,141.426,3,1,0.7037,,4,1,41,1,1,2,R,,3,,,,,,,
,,,,,,,,,,1,Tobey,2024-09-24_15h32.23.257,Motor_Task,2023.2.2,MacIntel,62.11180124,141.4265,142.1416,2,1,0.7042,,4,2,42,2,1,3,M,,2,,,,,,,
,,,,,,,,,,1,Tobey,2024-09-24_15h32.23.257,Motor_Task,2023.2.2,MacIntel,62.11180124,142.1422,142.7082,3,1,0.5551,,4,3,43,3,1,4,R,,3,,,,,,,
,,,,,,,,,,1,Tobey,2024-09-24_15h32.23.257,Motor_Task,2023.2.2,MacIntel,62.11180124,142.7086,143.3586,1,1,0.6497,,4,4,44,4,1,5,I,,1,,,,,,,
,,,,,,,,,,1,Tobey,2024-09-24_15h32.23.257,Motor_Task,2023.2.2,MacIntel,62.11180124,143.3591,143.9428,1,1,0.5707,,4,5,45,5,1,6,I,,1,,,,,,,
,,,,,,,,,,1,Tobey,2024-09-24_15h32.23.257,Motor_Task,2023.2.2,MacIntel,62.11180124,143.9434,144.776,3,1,0.82,,4,6,46,6,1,7,R,,3,,,,,,,
,,,,,,,,,,1,Tobey,2024-09-24_15h32.23.257,Motor_Task,2023.2.2,MacIntel,62.11180124,144.7766,145.3925,2,1,0.6036,,4,7,47,7,1,8,M,,2,,,,,,,
,,,,,,,,,,1,Tobey,2024-09-24_15h32.23.257,Motor_Task,2023.2.2,MacIntel,62.11180124,145.3931,146.2925,4,1,0.8868,,4,8,48,8,1,9,L,,4,,,,,,,
,,,,,,,,,,1,Tobey,2024-09-24_15h32.23.257,Motor_Task,2023.2.2,MacIntel,62.11180124,146.2929,146.8751,1,1,0.5749,,4,9,49,9,1,10,I,,1,,,,,,,
,,,,,,,,,,1,Tobey,2024-09-24_15h32.23.257,Motor_Task,2023.2.2,MacIntel,62.11180124,146.8757,147.6426,2,1,0.7548,,5,0,50,0,1,1,M,,2,,,,,,,
,,,,,,,,,,1,Tobey,2024-09-24_15h32.23.257,Motor_Task,2023.2.2,MacIntel,62.11180124,147.6432,148.4094,3,1,0.7547,,5,1,51,1,1,2,R,,3,,,,,,,
,,,,,,,,,,1,Tobey,2024-09-24_15h32.23.257,Motor_Task,2023.2.2,MacIntel,62.11180124,148.4103,149.3092,2,1,0.8864,,5,2,52,2,1,3,M,,2,,,,,,,
,,,,,,,,,,1,Tobey,2024-09-24_15h32.23.257,Motor_Task,2023.2.2,MacIntel,62.11180124,149.3098,149.8092,3,1,0.4877,,5,3,53,3,1,4,R,,3,,,,,,,
,,,,,,,,,,1,Tobey,2024-09-24_15h32.23.257,Motor_Task,2023.2.2,MacIntel,62.11180124,149.8097,150.5259,1,1,0.7042,,5,4,54,4,1,5,I,,1,,,,,,,
,,,,,,,,,,1,Tobey,2024-09-24_15h32.23.257,Motor_Task,2023.2.2,MacIntel,62.11180124,150.5267,151.1258,1,1,0.5889,,5,5,55,5,1,6,I,,1,,,,,,,
,,,,,,,,,,1,Tobey,2024-09-24_15h32.23.257,Motor_Task,2023.2.2,MacIntel,62.11180124,151.1263,151.9759,3,1,0.8374,,5,6,56,6,1,7,R,,3,,,,,,,
,,,,,,,,,,1,Tobey,2024-09-24_15h32.23.257,Motor_Task,2023.2.2,MacIntel,62.11180124,151.9763,152.7093,2,1,0.7203,,5,7,57,7,1,8,M,,2,,,,,,,
,,,,,,,,,,1,Tobey,2024-09-24_15h32.23.257,Motor_Task,2023.2.2,MacIntel,62.11180124,152.7098,153.5091,4,1,0.7868,,5,8,58,8,1,9,L,,4,,,,,,,
,,,,,,,,,,1,Tobey,2024-09-24_15h32.23.257,Motor_Task,2023.2.2,MacIntel,62.11180124,153.5097,154.0759,1,1,0.5538,,5,9,59,9,1,10,I,,1,,,,,,,
,,,,,,,,,,1,Tobey,2024-09-24_15h32.23.257,Motor_Task,2023.2.2,MacIntel,62.11180124,154.0765,154.8926,2,1,0.8039,,6,0,60,0,1,1,M,,2,,,,,,,
,,,,,,,,,,1,Tobey,2024-09-24_15h32.23.257,Motor_Task,2023.2.2,MacIntel,62.11180124,154.8935,155.5253,3,1,0.6303,,6,1,61,1,1,2,R,,3,,,,,,,
,,,,,,,,,,1,Tobey,2024-09-24_15h32.23.257,Motor_Task,2023.2.2,MacIntel,62.11180124,155.5257,156.3259,2,1,0.7899,,6,2,62,2,1,3,M,,2,,,,,,,
,,,,,,,,,,1,Tobey,2024-09-24_15h32.23.257,Motor_Task,2023.2.2,MacIntel,62.11180124,156.3267,156.9425,3,1,0.603,,6,3,63,3,1,4,R,,3,,,,,,,
,,,,,,,,,,1,Tobey,2024-09-24_15h32.23.257,Motor_Task,2023.2.2,MacIntel,62.11180124,156.943,157.5582,1,1,0.6035,,6,4,64,4,1,5,I,,1,,,,,,,
,,,,,,,,,,1,Tobey,2024-09-24_15h32.23.257,Motor_Task,2023.2.2,MacIntel,62.11180124,157.5588,158.242,1,1,0.6716,,6,5,65,5,1,6,I,,1,,,,,,,
,,,,,,,,,,1,Tobey,2024-09-24_15h32.23.257,Motor_Task,2023.2.2,MacIntel,62.11180124,158.2424,159.3259,3,1,1.0728,,6,6,66,6,1,7,R,,3,,,,,,,
,,,,,,,,,,1,Tobey,2024-09-24_15h32.23.257,Motor_Task,2023.2.2,MacIntel,62.11180124,159.3263,160.1089,2,1,0.7797,,6,7,67,7,1,8,M,,2,,,,,,,
,,,,,,,,,,1,Tobey,2024-09-24_15h32.23.257,Motor_Task,2023.2.2,MacIntel,62.11180124,160.1092,160.7759,4,1,0.6533,,6,8,68,8,1,9,L,,4,,,,,,,
,,,,,,,,,,1,Tobey,2024-09-24_15h32.23.257,Motor_Task,2023.2.2,MacIntel,62.11180124,160.7764,161.3927,1,1,0.6041,,6,9,69,9,1,10,I,,1,,,,,,,
,,,,,,,,,,1,Tobey,2024-09-24_15h32.23.257,Motor_Task,2023.2.2,MacIntel,62.11180124,161.3935,161.9089,2,1,0.5134,,7,0,70,0,1,1,M,,2,,,,,,,
,,,,,,,,,,1,Tobey,2024-09-24_15h32.23.257,Motor_Task,2023.2.2,MacIntel,62.11180124,161.9092,162.3591,3,1,0.437,,7,1,71,1,1,2,R,,3,,,,,,,
,,,,,,,,,,1,Tobey,2024-09-24_15h32.23.257,Motor_Task,2023.2.2,MacIntel,62.11180124,162.3597,162.8438,2,1,0.4837,,7,2,72,2,1,3,M,,2,,,,,,,
,,,,,,,,,,1,Tobey,2024-09-24_15h32.23.257,Motor_Task,2023.2.2,MacIntel,62.11180124,162.8442,163.2925,3,1,0.4472,,7,3,73,3,1,4,R,,3,,,,,,,
,,,,,,,,,,1,Tobey,2024-09-24_15h32.23.257,Motor_Task,2023.2.2,MacIntel,62.11180124,163.2929,163.8593,1,1,0.554,,7,4,74,4,1,5,I,,1,,,,,,,
,,,,,,,,,,1,Tobey,2024-09-24_15h32.23.257,Motor_Task,2023.2.2,MacIntel,62.11180124,163.8599,164.3925,1,1,0.5202,,7,5,75,5,1,6,I,,1,,,,,,,
,,,,,,,,,,1,Tobey,2024-09-24_15h32.23.257,Motor_Task,2023.2.2,MacIntel,62.11180124,164.3929,165.3583,3,1,0.956,,7,6,76,6,1,7,R,,3,,,,,,,
,,,,,,,,,,1,Tobey,2024-09-24_15h32.23.257,Motor_Task,2023.2.2,MacIntel,62.11180124,165.3586,166.1258,2,1,0.7542,,7,7,77,7,1,8,M,,2,,,,,,,
,,,,,,,,,,1,Tobey,2024-09-24_15h32.23.257,Motor_Task,2023.2.2,MacIntel,62.11180124,166.1263,166.6758,4,1,0.5374,,7,8,78,8,1,9,L,,4,,,,,,,
,,,,,,,,,,1,Tobey,2024-09-24_15h32.23.257,Motor_Task,2023.2.2,MacIntel,62.11180124,166.6761,167.243,1,1,0.5538,,7,9,79,9,1,10,I,,1,,,,,,,
,,,,,,,,,,1,Tobey,2024-09-24_15h32.23.257,Motor_Task,2023.2.2,MacIntel,62.11180124,167.2436,167.7757,2,1,0.5199,,8,0,80,0,1,1,M,,2,,,,,,,
,,,,,,,,,,1,Tobey,2024-09-24_15h32.23.257,Motor_Task,2023.2.2,MacIntel,62.11180124,167.7761,168.2424,3,1,0.4541,,8,1,81,1,1,2,R,,3,,,,,,,
,,,,,,,,,,1,Tobey,2024-09-24_15h32.23.257,Motor_Task,2023.2.2,MacIntel,62.11180124,168.2429,168.7255,2,1,0.4707,,8,2,82,2,1,3,M,,2,,,,,,,
,,,,,,,,,,1,Tobey,2024-09-24_15h32.23.257,Motor_Task,2023.2.2,MacIntel,62.11180124,168.7259,169.176,3,1,0.4364,,8,3,83,3,1,4,R,,3,,,,,,,
,,,,,,,,,,1,Tobey,2024-09-24_15h32.23.257,Motor_Task,2023.2.2,MacIntel,62.11180124,169.1765,169.7592,1,1,0.5702,,8,4,84,4,1,5,I,,1,,,,,,,
,,,,,,,,,,1,Tobey,2024-09-24_15h32.23.257,Motor_Task,2023.2.2,MacIntel,62.11180124,169.7598,170.2753,1,1,0.5055,,8,5,85,5,1,6,I,,1,,,,,,,
,,,,,,,,,,1,Tobey,2024-09-24_15h32.23.257,Motor_Task,2023.2.2,MacIntel,62.11180124,170.2758,171.0095,3,1,0.7325,,8,6,86,6,1,7,R,,3,,,,,,,
,,,,,,,,,,1,Tobey,2024-09-24_15h32.23.257,Motor_Task,2023.2.2,MacIntel,62.11180124,171.01,171.6593,2,1,0.6368,,8,7,87,7,1,8,M,,2,,,,,,,
,,,,,,,,,,1,Tobey,2024-09-24_15h32.23.257,Motor_Task,2023.2.2,MacIntel,62.11180124,171.6599,172.0927,4,1,0.4219,,8,8,88,8,1,9,L,,4,,,,,,,
,,,,,,,,,,1,Tobey,2024-09-24_15h32.23.257,Motor_Task,2023.2.2,MacIntel,62.11180124,172.0933,172.6418,1,1,0.5371,,8,9,89,9,1,10,I,,1,,,,,,,
,,,,,,,,,,1,Tobey,2024-09-24_15h32.23.257,Motor_Task,2023.2.2,MacIntel,62.11180124,172.6425,173.2758,2,1,0.6212,,9,0,90,0,1,1,M,,2,,,,,,,
,,,,,,,,,,1,Tobey,2024-09-24_15h32.23.257,Motor_Task,2023.2.2,MacIntel,62.11180124,173.2764,173.7593,3,1,0.4822,,9,1,91,1,1,2,R,,3,,,,,,,
,,,,,,,,,,1,Tobey,2024-09-24_15h32.23.257,Motor_Task,2023.2.2,MacIntel,62.11180124,173.7599,174.2425,2,1,0.4713,,9,2,92,2,1,3,M,,2,,,,,,,
,,,,,,,,,,1,Tobey,2024-09-24_15h32.23.257,Motor_Task,2023.2.2,MacIntel,62.11180124,174.2431,174.6594,3,1,0.4038,,9,3,93,3,1,4,R,,3,,,,,,,
,,,,,,,,,,1,Tobey,2024-09-24_15h32.23.257,Motor_Task,2023.2.2,MacIntel,62.11180124,174.6607,175.1926,1,1,0.5239,,9,4,94,4,1,5,I,,1,,,,,,,
,,,,,,,,,,1,Tobey,2024-09-24_15h32.23.257,Motor_Task,2023.2.2,MacIntel,62.11180124,175.1933,175.8092,1,1,0.6035,,9,5,95,5,1,6,I,,1,,,,,,,
,,,,,,,,,,1,Tobey,2024-09-24_15h32.23.257,Motor_Task,2023.2.2,MacIntel,62.11180124,175.8098,176.6926,3,1,0.8707,,9,6,96,6,1,7,R,,3,,,,,,,
,,,,,,,,,,1,Tobey,2024-09-24_15h32.23.257,Motor_Task,2023.2.2,MacIntel,62.11180124,176.6933,176.9093,4,0,0.2059,,9,7,97,7,1,8,M,,2,,,,,,,
,,,,,,,,,,1,Tobey,2024-09-24_15h32.23.257,Motor_Task,2023.2.2,MacIntel,62.11180124,176.9099,178.0758,4,1,1.1644,,9,8,98,8,1,9,L,,4,,,,,,,
,,,,,,,,,,1,Tobey,2024-09-24_15h32.23.257,Motor_Task,2023.2.2,MacIntel,62.11180124,178.0762,178.6749,1,1,0.5873,,9,9,99,9,1,10,I,,1,,,,,,,
,,,,,,,,,,1,Tobey,2024-09-24_15h32.23.257,Motor_Task,2023.2.2,MacIntel,62.11180124,178.6755,179.2425,2,1,0.555,,10,0,100,0,1,1,M,,2,,,,,,,
,,,,,,,,,,1,Tobey,2024-09-24_15h32.23.257,Motor_Task,2023.2.2,MacIntel,62.11180124,179.243,180.1091,3,1,0.8533,,10,1,101,1,1,2,R,,3,,,,,,,
,,,,,,,,,,1,Tobey,2024-09-24_15h32.23.257,Motor_Task,2023.2.2,MacIntel,62.11180124,180.1098,180.6259,2,1,0.5067,,10,2,102,2,1,3,M,,2,,,,,,,
,,,,,,,,,,1,Tobey,2024-09-24_15h32.23.257,Motor_Task,2023.2.2,MacIntel,62.11180124,180.6265,181.0927,3,1,0.4549,,10,3,103,3,1,4,R,,3,,,,,,,
,,,,,,,,,,1,Tobey,2024-09-24_15h32.23.257,Motor_Task,2023.2.2,MacIntel,62.11180124,181.0936,181.609,1,1,0.5035,,10,4,104,4,1,5,I,,1,,,,,,,
,,,,,,,,,,1,Tobey,2024-09-24_15h32.23.257,Motor_Task,2023.2.2,MacIntel,62.11180124,181.6097,182.1923,1,1,0.5713,,10,5,105,5,1,6,I,,1,,,,,,,
,,,,,,,,,,1,Tobey,2024-09-24_15h32.23.257,Motor_Task,2023.2.2,MacIntel,62.11180124,182.1928,183.0592,3,1,0.8538,,10,6,106,6,1,7,R,,3,,,,,,,
,,,,,,,,,,1,Tobey,2024-09-24_15h32.23.257,Motor_Task,2023.2.2,MacIntel,62.11180124,183.0598,183.7258,2,1,0.6644,,10,7,107,7,1,8,M,,2,,,,,,,
,,,,,,,,,,1,Tobey,2024-09-24_15h32.23.257,Motor_Task,2023.2.2,MacIntel,62.11180124,183.7265,184.5758,4,1,0.8487,,10,8,108,8,1,9,L,,4,,,,,,,
,,,,,,,,,,1,Tobey,2024-09-24_15h32.23.257,Motor_Task,2023.2.2,MacIntel,62.11180124,184.5762,185.1759,1,1,0.586,,10,9,109,9,1,10,I,,1,,,,,,,
,,,,,,,,,,1,Tobey,2024-09-24_15h32.23.257,Motor_Task,2023.2.2,MacIntel,62.11180124,185.1766,185.8596,2,1,0.6717,,11,0,110,0,1,1,M,,2,,,,,,,
,,,,,,,,,,1,Tobey,2024-09-24_15h32.23.257,Motor_Task,2023.2.2,MacIntel,62.11180124,185.8604,186.3092,3,1,0.437,,11,1,111,1,1,2,R,,3,,,,,,,
,,,,,,,,,,1,Tobey,2024-09-24_15h32.23.257,Motor_Task,2023.2.2,MacIntel,62.11180124,186.3097,186.8757,2,1,0.554,,11,2,112,2,1,3,M,,2,,,,,,,
,,,,,,,,,,1,Tobey,2024-09-24_15h32.23.257,Motor_Task,2023.2.2,MacIntel,62.11180124,186.8763,187.3252,3,1,0.4369,,11,3,113,3,1,4,R,,3,,,,,,,
,,,,,,,,,,1,Tobey,2024-09-24_15h32.23.257,Motor_Task,2023.2.2,MacIntel,62.11180124,187.3258,187.7928,1,1,0.4662,,11,4,114,4,1,5,I,,1,,,,,,,
,,,,,,,,,,1,Tobey,2024-09-24_15h32.23.257,Motor_Task,2023.2.2,MacIntel,62.11180124,187.7935,188.3757,1,1,0.5709,,11,5,115,5,1,6,I,,1,,,,,,,
,,,,,,,,,,1,Tobey,2024-09-24_15h32.23.257,Motor_Task,2023.2.2,MacIntel,62.11180124,188.3763,189.2758,3,1,0.8888,,11,6,116,6,1,7,R,,3,,,,,,,
,,,,,,,,,,1,Tobey,2024-09-24_15h32.23.257,Motor_Task,2023.2.2,MacIntel,62.11180124,189.2764,189.6757,2,1,0.3858,,11,7,117,7,1,8,M,,2,,,,,,,
,,,,,,,,,,1,Tobey,2024-09-24_15h32.23.257,Motor_Task,2023.2.2,MacIntel,62.11180124,189.6762,190.0415,4,1,0.3536,,11,8,118,8,1,9,L,,4,,,,,,,
,,,,,,,,,,1,Tobey,2024-09-24_15h32.23.257,Motor_Task,2023.2.2,MacIntel,62.11180124,190.042,190.4757,1,1,0.4213,,11,9,119,9,1,10,I,,1,,,,,,,
,,,,,,,,,,1,Tobey,2024-09-24_15h32.23.257,Motor_Task,2023.2.2,MacIntel,62.11180124,190.4766,190.8423,1,0,0.3527,,12,0,120,0,1,1,M,,2,,,,,,,
,,,,,,,,,,1,Tobey,2024-09-24_15h32.23.257,Motor_Task,2023.2.2,MacIntel,62.11180124,190.8429,192.0091,3,1,1.154,,12,1,121,1,1,2,R,,3,,,,,,,
,,,,,,,,,,1,Tobey,2024-09-24_15h32.23.257,Motor_Task,2023.2.2,MacIntel,62.11180124,192.0098,192.4257,2,1,0.4034,,12,2,122,2,1,3,M,,2,,,,,,,
,,,,,,,,,,1,Tobey,2024-09-24_15h32.23.257,Motor_Task,2023.2.2,MacIntel,62.11180124,192.4262,192.7758,3,1,0.3381,,12,3,123,3,1,4,R,,3,,,,,,,
,,,,,,,,,,1,Tobey,2024-09-24_15h32.23.257,Motor_Task,2023.2.2,MacIntel,62.11180124,192.7764,193.1423,1,1,0.3653,,12,4,124,4,1,5,I,,1,,,,,,,
,,,,,,,,,,1,Tobey,2024-09-24_15h32.23.257,Motor_Task,2023.2.2,MacIntel,62.11180124,193.1428,193.509,1,1,0.365,,12,5,125,5,1,6,I,,1,,,,,,,
,,,,,,,,,,1,Tobey,2024-09-24_15h32.23.257,Motor_Task,2023.2.2,MacIntel,62.11180124,193.5095,194.4751,3,1,0.9535,,12,6,126,6,1,7,R,,3,,,,,,,
,,,,,,,,,,1,Tobey,2024-09-24_15h32.23.257,Motor_Task,2023.2.2,MacIntel,62.11180124,194.4756,194.9256,2,1,0.4369,,12,7,127,7,1,8,M,,2,,,,,,,
,,,,,,,,,,1,Tobey,2024-09-24_15h32.23.257,Motor_Task,2023.2.2,MacIntel,62.11180124,194.9261,195.4921,4,1,0.5635,,12,8,128,8,1,9,L,,4,,,,,,,
,,,,,,,,,,1,Tobey,2024-09-24_15h32.23.257,Motor_Task,2023.2.2,MacIntel,62.11180124,195.4924,196.0581,1,1,0.5521,,12,9,129,9,1,10,I,,1,,,,,,,
,,,,,,,,,,1,Tobey,2024-09-24_15h32.23.257,Motor_Task,2023.2.2,MacIntel,62.11180124,196.0582,196.7414,2,1,0.6731,,13,0,130,0,1,1,M,,2,,,,,,,
,,,,,,,,,,1,Tobey,2024-09-24_15h32.23.257,Motor_Task,2023.2.2,MacIntel,62.11180124,196.7418,197.159,3,1,0.4079,,13,1,131,1,1,2,R,,3,,,,,,,
,,,,,,,,,,1,Tobey,2024-09-24_15h32.23.257,Motor_Task,2023.2.2,MacIntel,62.11180124,197.1596,197.6253,2,1,0.4537,,13,2,132,2,1,3,M,,2,,,,,,,
,,,,,,,,,,1,Tobey,2024-09-24_15h32.23.257,Motor_Task,2023.2.2,MacIntel,62.11180124,197.6255,198.1085,3,1,0.471,,13,3,133,3,1,4,R,,3,,,,,,,
,,,,,,,,,,1,Tobey,2024-09-24_15h32.23.257,Motor_Task,2023.2.2,MacIntel,62.11180124,198.1089,198.6256,1,1,0.5032,,13,4,134,4,1,5,I,,1,,,,,,,
,,,,,,,,,,1,Tobey,2024-09-24_15h32.23.257,Motor_Task,2023.2.2,MacIntel,62.11180124,198.6262,199.259,1,1,0.6201,,13,5,135,5,1,6,I,,1,,,,,,,
,,,,,,,,,,1,Tobey,2024-09-24_15h32.23.257,Motor_Task,2023.2.2,MacIntel,62.11180124,199.2596,200.2257,3,1,0.9534,,13,6,136,6,1,7,R,,3,,,,,,,
,,,,,,,,,,1,Tobey,2024-09-24_15h32.23.257,Motor_Task,2023.2.2,MacIntel,62.11180124,200.2263,200.5757,2,1,0.3377,,13,7,137,7,1,8,M,,2,,,,,,,
,,,,,,,,,,1,Tobey,2024-09-24_15h32.23.257,Motor_Task,2023.2.2,MacIntel,62.11180124,200.5764,201.0932,4,1,0.5156,,13,8,138,8,1,9,L,,4,,,,,,,
,,,,,,,,,,1,Tobey,2024-09-24_15h32.23.257,Motor_Task,2023.2.2,MacIntel,62.11180124,201.0939,201.8258,1,1,0.7193,,13,9,139,9,1,10,I,,1,,,,,,,
,,,,,,,,,,1,Tobey,2024-09-24_15h32.23.257,Motor_Task,2023.2.2,MacIntel,62.11180124,201.8264,202.7091,2,1,0.8702,,14,0,140,0,1,1,M,,2,,,,,,,
,,,,,,,,,,1,Tobey,2024-09-24_15h32.23.257,Motor_Task,2023.2.2,MacIntel,62.11180124,202.7098,203.0591,3,1,0.3375,,14,1,141,1,1,2,R,,3,,,,,,,
,,,,,,,,,,1,Tobey,2024-09-24_15h32.23.257,Motor_Task,2023.2.2,MacIntel,62.11180124,203.0597,203.3591,2,1,0.2898,,14,2,142,2,1,3,M,,2,,,,,,,
,,,,,,,,,,1,Tobey,2024-09-24_15h32.23.257,Motor_Task,2023.2.2,MacIntel,62.11180124,203.3595,203.6923,3,1,0.3205,,14,3,143,3,1,4,R,,3,,,,,,,
,,,,,,,,,,1,Tobey,2024-09-24_15h32.23.257,Motor_Task,2023.2.2,MacIntel,62.11180124,203.6929,204.0925,1,1,0.3905,,14,4,144,4,1,5,I,,1,,,,,,,
,,,,,,,,,,1,Tobey,2024-09-24_15h32.23.257,Motor_Task,2023.2.2,MacIntel,62.11180124,204.093,204.3596,1,1,0.254,,14,5,145,5,1,6,I,,1,,,,,,,
,,,,,,,,,,1,Tobey,2024-09-24_15h32.23.257,Motor_Task,2023.2.2,MacIntel,62.11180124,204.3603,205.2089,3,1,0.8376,,14,6,146,6,1,7,R,,3,,,,,,,
,,,,,,,,,,1,Tobey,2024-09-24_15h32.23.257,Motor_Task,2023.2.2,MacIntel,62.11180124,205.2095,205.6758,2,1,0.4558,,14,7,147,7,1,8,M,,2,,,,,,,
,,,,,,,,,,1,Tobey,2024-09-24_15h32.23.257,Motor_Task,2023.2.2,MacIntel,62.11180124,205.6763,206.0086,4,1,0.3218,,14,8,148,8,1,9,L,,4,,,,,,,
,,,,,,,,,,1,Tobey,2024-09-24_15h32.23.257,Motor_Task,2023.2.2,MacIntel,62.11180124,206.0089,206.5092,1,1,0.4893,,14,9,149,9,1,10,I,,1,,,,,,,
,,,,,,,,,,1,Tobey,2024-09-24_15h32.23.257,Motor_Task,2023.2.2,MacIntel,62.11180124,206.5096,207.1756,2,1,0.6536,,15,0,150,0,1,1,M,,2,,,,,,,
,,,,,,,,,,1,Tobey,2024-09-24_15h32.23.257,Motor_Task,2023.2.2,MacIntel,62.11180124,207.1758,207.4589,3,1,0.2708,,15,1,151,1,1,2,R,,3,,,,,,,
,,,,,,,,,,1,Tobey,2024-09-24_15h32.23.257,Motor_Task,2023.2.2,MacIntel,62.11180124,207.4594,207.892,2,1,0.4212,,15,2,152,2,1,3,M,,2,,,,,,,
,,,,,,,,,,1,Tobey,2024-09-24_15h32.23.257,Motor_Task,2023.2.2,MacIntel,62.11180124,207.8927,208.3257,3,1,0.4319,,15,3,153,3,1,4,R,,3,,,,,,,
,,,,,,,,,,1,Tobey,2024-09-24_15h32.23.257,Motor_Task,2023.2.2,MacIntel,62.11180124,208.3262,208.8757,1,1,0.5382,,15,4,154,4,1,5,I,,1,,,,,,,
,,,,,,,,,,1,Tobey,2024-09-24_15h32.23.257,Motor_Task,2023.2.2,MacIntel,62.11180124,208.8762,209.4748,1,1,0.5883,,15,5,155,5,1,6,I,,1,,,,,,,
,,,,,,,,,,1,Tobey,2024-09-24_15h32.23.257,Motor_Task,2023.2.2,MacIntel,62.11180124,209.4751,210.3424,3,1,0.8542,,15,6,156,6,1,7,R,,3,,,,,,,
,,,,,,,,,,1,Tobey,2024-09-24_15h32.23.257,Motor_Task,2023.2.2,MacIntel,62.11180124,210.3431,210.6591,2,1,0.3087,,15,7,157,7,1,8,M,,2,,,,,,,
,,,,,,,,,,1,Tobey,2024-09-24_15h32.23.257,Motor_Task,2023.2.2,MacIntel,62.11180124,210.6595,210.8923,4,1,0.2213,,15,8,158,8,1,9,L,,4,,,,,,,
,,,,,,,,,,1,Tobey,2024-09-24_15h32.23.257,Motor_Task,2023.2.2,MacIntel,62.11180124,210.8929,211.559,1,1,0.6538,,15,9,159,9,1,10,I,,1,,,,,,,
,,,,,,,,,,1,Tobey,2024-09-24_15h32.23.257,Motor_Task,2023.2.2,MacIntel,62.11180124,211.5595,212.3925,2,1,0.8199,,16,0,160,0,1,1,M,,2,,,,,,,
,,,,,,,,,,1,Tobey,2024-09-24_15h32.23.257,Motor_Task,2023.2.2,MacIntel,62.11180124,212.393,212.709,3,1,0.3036,,16,1,161,1,1,2,R,,3,,,,,,,
,,,,,,,,,,1,Tobey,2024-09-24_15h32.23.257,Motor_Task,2023.2.2,MacIntel,62.11180124,212.7095,213.0751,2,1,0.3555,,16,2,162,2,1,3,M,,2,,,,,,,
,,,,,,,,,,1,Tobey,2024-09-24_15h32.23.257,Motor_Task,2023.2.2,MacIntel,62.11180124,213.0755,213.3089,3,1,0.2329,,16,3,163,3,1,4,R,,3,,,,,,,
,,,,,,,,,,1,Tobey,2024-09-24_15h32.23.257,Motor_Task,2023.2.2,MacIntel,62.11180124,213.3092,213.7923,1,1,0.471,,16,4,164,4,1,5,I,,1,,,,,,,
,,,,,,,,,,1,Tobey,2024-09-24_15h32.23.257,Motor_Task,2023.2.2,MacIntel,62.11180124,213.7927,214.2757,1,1,0.4718,,16,5,165,5,1,6,I,,1,,,,,,,
,,,,,,,,,,1,Tobey,2024-09-24_15h32.23.257,Motor_Task,2023.2.2,MacIntel,62.11180124,214.2763,215.0253,3,1,0.7378,,16,6,166,6,1,7,R,,3,,,,,,,
,,,,,,,,,,1,Tobey,2024-09-24_15h32.23.257,Motor_Task,2023.2.2,MacIntel,62.11180124,215.0257,215.309,2,1,0.2823,,16,7,167,7,1,8,M,,2,,,,,,,
,,,,,,,,,,1,Tobey,2024-09-24_15h32.23.257,Motor_Task,2023.2.2,MacIntel,62.11180124,215.3096,216.0256,4,1,0.7036,,16,8,168,8,1,9,L,,4,,,,,,,
,,,,,,,,,,1,Tobey,2024-09-24_15h32.23.257,Motor_Task,2023.2.2,MacIntel,62.11180124,216.0262,216.658,1,1,0.6206,,16,9,169,9,1,10,I,,1,,,,,,,
,,,,,,,,,,1,Tobey,2024-09-24_15h32.23.257,Motor_Task,2023.2.2,MacIntel,62.11180124,216.6586,217.2922,2,1,0.6213,,17,0,170,0,1,1,M,,2,,,,,,,
,,,,,,,,,,1,Tobey,2024-09-24_15h32.23.257,Motor_Task,2023.2.2,MacIntel,62.11180124,217.2926,217.5589,3,1,0.2539,,17,1,171,1,1,2,R,,3,,,,,,,
,,,,,,,,,,1,Tobey,2024-09-24_15h32.23.257,Motor_Task,2023.2.2,MacIntel,62.11180124,217.5594,217.8421,2,1,0.2813,,17,2,172,2,1,3,M,,2,,,,,,,
,,,,,,,,,,1,Tobey,2024-09-24_15h32.23.257,Motor_Task,2023.2.2,MacIntel,62.11180124,217.8426,218.0756,3,1,0.2203,,17,3,173,3,1,4,R,,3,,,,,,,
,,,,,,,,,,1,Tobey,2024-09-24_15h32.23.257,Motor_Task,2023.2.2,MacIntel,62.11180124,218.0762,218.4088,1,1,0.3315,,17,4,174,4,1,5,I,,1,,,,,,,
,,,,,,,,,,1,Tobey,2024-09-24_15h32.23.257,Motor_Task,2023.2.2,MacIntel,62.11180124,218.4093,218.809,1,1,0.3879,,17,5,175,5,1,6,I,,1,,,,,,,
,,,,,,,,,,1,Tobey,2024-09-24_15h32.23.257,Motor_Task,2023.2.2,MacIntel,62.11180124,218.8096,219.9592,3,1,1.1371,,17,6,176,6,1,7,R,,3,,,,,,,
,,,,,,,,,,1,Tobey,2024-09-24_15h32.23.257,Motor_Task,2023.2.2,MacIntel,62.11180124,219.9597,220.1587,2,1,0.1869,,17,7,177,7,1,8,M,,2,,,,,,,
,,,,,,,,,,1,Tobey,2024-09-24_15h32.23.257,Motor_Task,2023.2.2,MacIntel,62.11180124,220.1589,220.376,4,1,0.2058,,17,8,178,8,1,9,L,,4,,,,,,,
,,,,,,,,,,1,Tobey,2024-09-24_15h32.23.257,Motor_Task,2023.2.2,MacIntel,62.11180124,220.3765,221.1256,1,1,0.7376,,17,9,179,9,1,10,I,,1,,,,,,,
,,,,,,,,,,1,Tobey,2024-09-24_15h32.23.257,Motor_Task,2023.2.2,MacIntel,62.11180124,221.1261,221.8089,2,1,0.6712,,18,0,180,0,1,1,M,,2,,,,,,,
,,,,,,,,,,1,Tobey,2024-09-24_15h32.23.257,Motor_Task,2023.2.2,MacIntel,62.11180124,221.8094,222.1258,3,1,0.3038,,18,1,181,1,1,2,R,,3,,,,,,,
,,,,,,,,,,1,Tobey,2024-09-24_15h32.23.257,Motor_Task,2023.2.2,MacIntel,62.11180124,222.1264,222.3759,2,1,0.2489,,18,2,182,2,1,3,M,,2,,,,,,,
,,,,,,,,,,1,Tobey,2024-09-24_15h32.23.257,Motor_Task,2023.2.2,MacIntel,62.11180124,222.3762,222.642,3,1,0.2646,,18,3,183,3,1,4,R,,3,,,,,,,
,,,,,,,,,,1,Tobey,2024-09-24_15h32.23.257,Motor_Task,2023.2.2,MacIntel,62.11180124,222.6425,222.9244,1,1,0.2804,,18,4,184,4,1,5,I,,1,,,,,,,
,,,,,,,,,,1,Tobey,2024-09-24_15h32.23.257,Motor_Task,2023.2.2,MacIntel,62.11180124,222.9247,223.209,1,1,0.2713,,18,5,185,5,1,6,I,,1,,,,,,,
,,,,,,,,,,1,Tobey,2024-09-24_15h32.23.257,Motor_Task,2023.2.2,MacIntel,62.11180124,223.2095,223.6256,3,1,0.4038,,18,6,186,6,1,7,R,,3,,,,,,,
,,,,,,,,,,1,Tobey,2024-09-24_15h32.23.257,Motor_Task,2023.2.2,MacIntel,62.11180124,223.626,223.9923,2,1,0.3544,,18,7,187,7,1,8,M,,2,,,,,,,
,,,,,,,,,,1,Tobey,2024-09-24_15h32.23.257,Motor_Task,2023.2.2,MacIntel,62.11180124,223.9928,224.5093,4,1,0.516,,18,8,188,8,1,9,L,,4,,,,,,,
,,,,,,,,,,1,Tobey,2024-09-24_15h32.23.257,Motor_Task,2023.2.2,MacIntel,62.11180124,224.5098,225.059,1,1,0.5367,,18,9,189,9,1,10,I,,1,,,,,,,
,,,,,,,,,,1,Tobey,2024-09-24_15h32.23.257,Motor_Task,2023.2.2,MacIntel,62.11180124,225.0596,225.7252,2,1,0.6562,,19,0,190,0,1,1,M,,2,,,,,,,
,,,,,,,,,,1,Tobey,2024-09-24_15h32.23.257,Motor_Task,2023.2.2,MacIntel,62.11180124,225.7253,225.9923,3,1,0.2545,,19,1,191,1,1,2,R,,3,,,,,,,
,,,,,,,,,,1,Tobey,2024-09-24_15h32.23.257,Motor_Task,2023.2.2,MacIntel,62.11180124,225.9928,226.2255,2,1,0.2202,,19,2,192,2,1,3,M,,2,,,,,,,
,,,,,,,,,,1,Tobey,2024-09-24_15h32.23.257,Motor_Task,2023.2.2,MacIntel,62.11180124,226.226,226.4588,3,1,0.2196,,19,3,193,3,1,4,R,,3,,,,,,,
,,,,,,,,,,1,Tobey,2024-09-24_15h32.23.257,Motor_Task,2023.2.2,MacIntel,62.11180124,226.4592,226.7589,1,1,0.2901,,19,4,194,4,1,5,I,,1,,,,,,,
,,,,,,,,,,1,Tobey,2024-09-24_15h32.23.257,Motor_Task,2023.2.2,MacIntel,62.11180124,226.7596,227.0088,1,1,0.2367,,19,5,195,5,1,6,I,,1,,,,,,,
,,,,,,,,,,1,Tobey,2024-09-24_15h32.23.257,Motor_Task,2023.2.2,MacIntel,62.11180124,227.0094,227.477,3,1,0.4539,,19,6,196,6,1,7,R,,3,,,,,,,
,,,,,,,,,,1,Tobey,2024-09-24_15h32.23.257,Motor_Task,2023.2.2,MacIntel,62.11180124,227.4779,227.6754,2,1,0.184,,19,7,197,7,1,8,M,,2,,,,,,,
,,,,,,,,,,1,Tobey,2024-09-24_15h32.23.257,Motor_Task,2023.2.2,MacIntel,62.11180124,227.6759,228.1912,4,1,0.5041,,19,8,198,8,1,9,L,,4,,,,,,,
,,,,,,,,,,1,Tobey,2024-09-24_15h32.23.257,Motor_Task,2023.2.2,MacIntel,62.11180124,228.1918,228.8413,1,1,0.6382,,19,9,199,9,1,10,I,,1,,,,,,,
,,,,,,,,,,1,Tobey,2024-09-24_15h32.23.257,Motor_Task,2023.2.2,MacIntel,62.11180124,228.8516,230.1921,3,1,1.3265,,,,,,,2,R,,3,0,0,0,1,1,,
,,,,,,,,,,1,Tobey,2024-09-24_15h32.23.257,Motor_Task,2023.2.2,MacIntel,62.11180124,230.1924,230.9751,3,1,0.7819,,,,,,,4,R,,3,0,1,1,3,1,,
,,,,,,,,,,1,Tobey,2024-09-24_15h32.23.257,Motor_Task,2023.2.2,MacIntel,62.11180124,230.9753,231.6588,3,1,0.6702,,,,,,,7,R,,3,0,2,2,6,1,,
,,,,,,,,,,1,Tobey,2024-09-24_15h32.23.257,Motor_Task,2023.2.2,MacIntel,62.11180124,231.6592,232.5588,1,1,0.895,,,,,,,10,I,,1,0,3,3,9,1,,
,,,,,,,,,,1,Tobey,2024-09-24_15h32.23.257,Motor_Task,2023.2.2,MacIntel,62.11180124,232.5592,233.4257,1,1,0.8548,,,,,,,5,I,,1,0,4,4,4,1,,
,,,,,,,,,,1,Tobey,2024-09-24_15h32.23.257,Motor_Task,2023.2.2,MacIntel,62.11180124,233.4265,234.2916,2,1,0.8635,,,,,,,1,M,,2,0,5,5,0,1,,
,,,,,,,,,,1,Tobey,2024-09-24_15h32.23.257,Motor_Task,2023.2.2,MacIntel,62.11180124,234.292,235.2593,4,1,0.9553,,,,,,,9,L,,4,0,6,6,8,1,,
,,,,,,,,,,1,Tobey,2024-09-24_15h32.23.257,Motor_Task,2023.2.2,MacIntel,62.11180124,235.2604,236.309,2,1,1.0362,,,,,,,3,M,,2,0,7,7,2,1,,
,,,,,,,,,,1,Tobey,2024-09-24_15h32.23.257,Motor_Task,2023.2.2,MacIntel,62.11180124,236.3095,237.0923,2,1,0.7704,,,,,,,8,M,,2,0,8,8,7,1,,
,,,,,,,,,,1,Tobey,2024-09-24_15h32.23.257,Motor_Task,2023.2.2,MacIntel,62.11180124,237.0929,237.9756,1,1,0.8697,,,,,,,6,I,,1,0,9,9,5,1,,
,,,,,,,,,,1,Tobey,2024-09-24_15h32.23.257,Motor_Task,2023.2.2,MacIntel,62.11180124,237.9761,238.6084,1,1,0.6213,,,,,,,5,I,,1,1,0,10,4,1,,
,,,,,,,,,,1,Tobey,2024-09-24_15h32.23.257,Motor_Task,2023.2.2,MacIntel,62.11180124,238.6088,239.3922,2,1,0.7721,,,,,,,3,M,,2,1,1,11,2,1,,
,,,,,,,,,,1,Tobey,2024-09-24_15h32.23.257,Motor_Task,2023.2.2,MacIntel,62.11180124,239.3927,240.2914,4,1,0.8879,,,,,,,9,L,,4,1,2,12,8,1,,
,,,,,,,,,,1,Tobey,2024-09-24_15h32.23.257,Motor_Task,2023.2.2,MacIntel,62.11180124,240.2921,241.2092,3,1,0.9163,,,,,,,2,R,,3,1,3,13,1,1,,
,,,,,,,,,,1,Tobey,2024-09-24_15h32.23.257,Motor_Task,2023.2.2,MacIntel,62.11180124,241.2099,242.1256,1,1,0.9036,,,,,,,6,I,,1,1,4,14,5,1,,
,,,,,,,,,,1,Tobey,2024-09-24_15h32.23.257,Motor_Task,2023.2.2,MacIntel,62.11180124,242.1262,242.9922,3,1,0.8534,,,,,,,4,R,,3,1,5,15,3,1,,
,,,,,,,,,,1,Tobey,2024-09-24_15h32.23.257,Motor_Task,2023.2.2,MacIntel,62.11180124,242.9928,243.808,2,1,0.8037,,,,,,,8,M,,2,1,6,16,7,1,,
,,,,,,,,,,1,Tobey,2024-09-24_15h32.23.257,Motor_Task,2023.2.2,MacIntel,62.11180124,243.8086,244.3922,2,1,0.5731,,,,,,,1,M,,2,1,7,17,0,1,,
,,,,,,,,,,1,Tobey,2024-09-24_15h32.23.257,Motor_Task,2023.2.2,MacIntel,62.11180124,244.3927,245.3922,3,1,0.9876,,,,,,,7,R,,3,1,8,18,6,1,,
,,,,,,,,,,1,Tobey,2024-09-24_15h32.23.257,Motor_Task,2023.2.2,MacIntel,62.11180124,245.3929,246.0422,1,1,0.6393,,,,,,,10,I,,1,1,9,19,9,1,,
,,,,,,,,,,1,Tobey,2024-09-24_15h32.23.257,Motor_Task,2023.2.2,MacIntel,62.11180124,246.0428,246.9414,2,1,0.8872,,,,,,,8,M,,2,2,0,20,7,1,,
,,,,,,,,,,1,Tobey,2024-09-24_15h32.23.257,Motor_Task,2023.2.2,MacIntel,62.11180124,246.9419,247.6246,1,1,0.6713,,,,,,,10,I,,1,2,1,21,9,1,,
,,,,,,,,,,1,Tobey,2024-09-24_15h32.23.257,Motor_Task,2023.2.2,MacIntel,62.11180124,247.6251,248.3756,1,1,0.7382,,,,,,,6,I,,1,2,2,22,5,1,,
,,,,,,,,,,1,Tobey,2024-09-24_15h32.23.257,Motor_Task,2023.2.2,MacIntel,62.11180124,248.3762,249.8921,3,1,1.5035,,,,,,,7,R,,3,2,3,23,6,1,,
,,,,,,,,,,1,Tobey,2024-09-24_15h32.23.257,Motor_Task,2023.2.2,MacIntel,62.11180124,249.8927,250.6922,3,1,0.7986,,,,,,,2,R,,3,2,4,24,1,1,,
,,,,,,,,,,1,Tobey,2024-09-24_15h32.23.257,Motor_Task,2023.2.2,MacIntel,62.11180124,250.6927,251.7921,2,1,1.0987,,,,,,,3,M,,2,2,5,25,2,1,,
,,,,,,,,,,1,Tobey,2024-09-24_15h32.23.257,Motor_Task,2023.2.2,MacIntel,62.11180124,251.7924,252.4089,1,1,0.6038,,,,,,,5,I,,1,2,6,26,4,1,,
,,,,,,,,,,1,Tobey,2024-09-24_15h32.23.257,Motor_Task,2023.2.2,MacIntel,62.11180124,252.4099,252.4755,2,0,0.0581,,,,,,,4,R,,3,2,7,27,3,1,,
,,,,,,,,,,1,Tobey,2024-09-24_15h32.23.257,Motor_Task,2023.2.2,MacIntel,62.11180124,252.476,253.3756,2,1,0.8882,,,,,,,1,M,,2,2,8,28,0,1,,
,,,,,,,,,,1,Tobey,2024-09-24_15h32.23.257,Motor_Task,2023.2.2,MacIntel,62.11180124,253.3762,254.3246,4,1,0.9369,,,,,,,9,L,,4,2,9,29,8,1,,
,,,,,,,,,,1,Tobey,2024-09-24_15h32.23.257,Motor_Task,2023.2.2,MacIntel,62.11180124,254.3252,254.8754,1,1,0.5488,,,,,,,5,I,,1,3,0,30,4,1,,
,,,,,,,,,,1,Tobey,2024-09-24_15h32.23.257,Motor_Task,2023.2.2,MacIntel,62.11180124,254.8759,255.4255,1,1,0.5373,,,,,,,10,I,,1,3,1,31,9,1,,
,,,,,,,,,,1,Tobey,2024-09-24_15h32.23.257,Motor_Task,2023.2.2,MacIntel,62.11180124,255.4259,256.3755,4,1,0.9371,,,,,,,9,L,,4,3,2,32,8,1,,
,,,,,,,,,,1,Tobey,2024-09-24_15h32.23.257,Motor_Task,2023.2.2,MacIntel,62.11180124,256.376,257.2589,3,1,0.8815,,,,,,,7,R,,3,3,3,33,6,1,,
,,,,,,,,,,1,Tobey,2024-09-24_15h32.23.257,Motor_Task,2023.2.2,MacIntel,62.11180124,257.2593,257.8256,3,1,0.5653,,,,,,,4,R,,3,3,4,34,3,1,,
,,,,,,,,,,1,Tobey,2024-09-24_15h32.23.257,Motor_Task,2023.2.2,MacIntel,62.11180124,257.8271,258.5589,2,1,0.7194,,,,,,,8,M,,2,3,5,35,7,1,,
,,,,,,,,,,1,Tobey,2024-09-24_15h32.23.257,Motor_Task,2023.2.2,MacIntel,62.11180124,258.5595,259.1919,1,1,0.6319,,,,,,,6,I,,1,3,6,36,5,1,,
,,,,,,,,,,1,Tobey,2024-09-24_15h32.23.257,Motor_Task,2023.2.2,MacIntel,62.11180124,259.192,260.0588,3,1,0.8546,,,,,,,2,R,,3,3,7,37,1,1,,
,,,,,,,,,,1,Tobey,2024-09-24_15h32.23.257,Motor_Task,2023.2.2,MacIntel,62.11180124,260.0593,260.842,2,1,0.7718,,,,,,,1,M,,2,3,8,38,0,1,,
,,,,,,,,,,1,Tobey,2024-09-24_15h32.23.257,Motor_Task,2023.2.2,MacIntel,62.11180124,260.8425,261.4587,2,1,0.6073,,,,,,,3,M,,2,3,9,39,2,1,,
,,,,,,,,,,1,Tobey,2024-09-24_15h32.23.257,Motor_Task,2023.2.2,MacIntel,62.11180124,261.4591,262.0255,2,1,0.5657,,,,,,,3,M,,2,4,0,40,2,1,,
,,,,,,,,,,1,Tobey,2024-09-24_15h32.23.257,Motor_Task,2023.2.2,MacIntel,62.11180124,262.0261,262.7255,3,1,0.6867,,,,,,,2,R,,3,4,1,41,1,1,,
,,,,,,,,,,1,Tobey,2024-09-24_15h32.23.257,Motor_Task,2023.2.2,MacIntel,62.11180124,262.7261,263.4421,2,1,0.7035,,,,,,,1,M,,2,4,2,42,0,1,,
,,,,,,,,,,1,Tobey,2024-09-24_15h32.23.257,Motor_Task,2023.2.2,MacIntel,62.11180124,263.4426,264.058,1,1,0.6046,,,,,,,6,I,,1,4,3,43,5,1,,
,,,,,,,,,,1,Tobey,2024-09-24_15h32.23.257,Motor_Task,2023.2.2,MacIntel,62.11180124,264.0584,264.642,1,1,0.5728,,,,,,,5,I,,1,4,4,44,4,1,,
,,,,,,,,,,1,Tobey,2024-09-24_15h32.23.257,Motor_Task,2023.2.2,MacIntel,62.11180124,264.6424,265.5587,1,1,0.9041,,,,,,,10,I,,1,4,5,45,9,1,,
,,,,,,,,,,1,Tobey,2024-09-24_15h32.23.257,Motor_Task,2023.2.2,MacIntel,62.11180124,265.5594,266.6754,4,1,1.1034,,,,,,,9,L,,4,4,6,46,8,1,,
,,,,,,,,,,1,Tobey,2024-09-24_15h32.23.257,Motor_Task,2023.2.2,MacIntel,62.11180124,266.6759,267.3254,2,1,0.6366,,,,,,,8,M,,2,4,7,47,7,1,,
,,,,,,,,,,1,Tobey,2024-09-24_15h32.23.257,Motor_Task,2023.2.2,MacIntel,62.11180124,267.326,267.9085,3,1,0.5802,,,,,,,4,R,,3,4,8,48,3,1,,
,,,,,,,,,,1,Tobey,2024-09-24_15h32.23.257,Motor_Task,2023.2.2,MacIntel,62.11180124,267.909,268.7589,3,1,0.8371,,,,,,,7,R,,3,4,9,49,6,1,,
,,,,,,,,,,1,Tobey,2024-09-24_15h32.23.257,Motor_Task,2023.2.2,MacIntel,62.11180124,,,,,,,,,,,,,,,,,,,,,268.7594,272.7589